Time (s),Linear Acceleration x (m/s^2),Linear Acceleration y (m/s^2),Linear Acceleration z (m/s^2),Absolute acceleration (m/s^2)
"0,004298249958","0,1176872018","-0,3353876652","0,3238129556","0,4808222059"
"0,01425225008","0,07747531503","-0,5096943332","0,007852810621","0,5156087707"
"0,02420524997","-0,02800743207","-0,2824943371","-0,01062439084","0,2840780605"
"0,03415925009","-0,2073334962","-0,1086851209","0,1060825253","0,2570080472"
"0,04411224998","-0,2776950887","-0,1056929545","0,06828027606","0,3048733491"
"0,0540662501","-0,2863698716","-0,1322505695","-0,02672236025","0,3165627916"
"0,06401924998","-0,3150380391","-0,1393854882","-0,06095956206","0,3498476077"
"0,07397325011","-0,1678985582","-0,1283678721","-0,03809344053","0,214754154"
"0,08392624999","-0,01700282604","-0,1419559242","-0,03217138052","0,1465454818"
"0,09388025012","-0,01467797309","-0,1538873139","-0,1509505498","0,2160620669"
"0,10383325","-0,07690857366","-0,112903887","-0,2227198595","0,2612783041"
"0,1137872501","-0,1638369361","-0,04352857366","-0,2786917466","0,3261998896"
"0,12374025","-0,22846241","-0,05072547287","-0,332838133","0,4068775849"
"0,1336942501","-0,2457249986","-0,04992118835","-0,2928098488","0,385500334"
"0,14364725","-0,230233824","-0,02535001874","-0,1642208058","0,2839343413"
"0,1536002501","-0,2202927534","-0,08110219672","-0,06524147809","0,2436450573"
"0,16355425","-0,2115856645","-0,1309824546","0,07066886365","0,2586870409"
"0,1735072501","-0,1616413066","-0,1074781094","0,1901549613","0,2717321573"
"0,18346125","-0,02709541261","-0,1158150695","0,1931194997","0,2268092434"
"0,1934142499","-0,02326899469","-0,1740691249","0,181623289","0,2526430792"
"0,20336825","-0,07188851975","-0,1572133563","0,1242106479","0,2128668216"
"0,2133212499","-0,169810817","-0,1516260494","0,03578379035","0,2304488058"
"0,2232752501","-0,2258683658","-0,173108135","-0,0005870604515","0,284575631"
"0,2332282499","-0,1999067283","-0,1474151771","0,06912402928","0,2578217716"
"0,2431822501","-0,1701538293","-0,1016269469","0,03316891551","0,2009490954"
"0,2531352499","-0,1355687913","-0,04005474284","-0,02562893093","0,1436667035"
"0,2630892501","-0,06255190507","-0,02670423388","-0,03344665825","0,07579271656"
"0,27304225","-0,0178193897","0,02078685164","-0,03942251265","0,04799748279"
"0,2829962501","0,008770384938","0,009861913919","-0,02999329269","0,03276850019"
"0,29294925","0,01157039724","-0,04634737015","-0,05147479355","0,07022540269"
"0,3029032501","0,02832471661","-0,07590124458","-0,1497559637","0,1702649029"
"0,31285625","0,02763269864","-0,1117398526","-0,2026995778","0,2331018651"
"0,3228092501","0,08664645351","-0,1366814433","-0,1184616655","0,2005557056"
"0,33276325","0,1930113993","-0,1009496932","0,02952785432","0,2198093151"
"0,3427162501","0,2443248828","-0,1050477143","0,1197854751","0,2916817284"
"0,35267025","0,169373226","-0,132801231","0,07743643105","0,2287353438"
"0,3626232501","0,02864587493","-0,1095266815","0,005631453395","0,1133507537"
"0,37257725","-0,02750530243","-0,1258728652","-0,03648837984","0,1339101255"
"0,3825302501","-0,1155890016","-0,1758380538","-0,07599450767","0,2237297558"
"0,39248425","-0,1777902199","-0,1648531821","-0,02414549232","0,2436574209"
"0,4024372501","-0,1617480183","-0,1461356601","0,1123080558","0,245216541"
"0,41239125","-0,1937232247","-0,1511838537","0,09558618844","0,2636701819"
"0,4223442501","-0,2513664653","-0,1467933257","-0,03320633769","0,2929778852"
"0,43229825","-0,2188528034","-0,1345982265","-0,1719180804","0,3091424567"
"0,4422512501","-0,1847937224","-0,09077027544","-0,3316751218","0,3903797499"
"0,45220525","-0,1721792317","-0,04048217431","-0,5110717911","0,5408131562"
"0,4621582499","-0,08806272224","-0,01109684587","-0,6326108462","0,6388072211"
"0,47211225","-0,05171906099","0,002353065759","-0,6339095128","0,6360201794"
"0,4820652499","-0,1217447309","0,04399927452","-0,5691954535","0,5837304001"
"0,4920192501","-0,1356302601","0,08892664835","-0,4030497444","0,4344566868"
"0,5019722499","-0,09822021291","0,07805828243","-0,2290424538","0,2611527356"
"0,5119252501","-0,1706168557","0,05049377695","-0,1062193501","0,2072251995"
"0,52187925","-0,2160731833","-0,008718783259","0,03232106924","0,2186510673"
"0,5318322501","-0,1326847252","-0,06590250582","0,2001145238","0,2489863434"
"0,54178625","-0,09400195844","-0,07854053155","0,4305339968","0,4476209398"
"0,5517392501","-0,08445023932","-0,0434604536","0,4884144151","0,4975633576"
"0,56169325","-0,1888174839","-0,03920134172","0,494981423","0,5312206665"
"0,5716462501","-0,3941308402","0,0144810681","0,5482904881","0,6754045305"
"0,58160025","-0,3647145215","-0,02434634417","0,5317124623","0,6452345071"
"0,5915532501","-0,37401291","-0,1383063845","0,4608570725","0,6094288753"
"0,60150725","-0,4487318476","-0,04421883747","0,2546070653","0,5178226862"
"0,6114602501","-0,41342519","0,06647714093","0,08399583757","0,4270771578"
"0,62141425","-0,535788666","0,03277437463","-0,03792328656","0,5381280794"
"0,6313672501","-0,2052614257","-0,03545415357","-0,3383421171","0,3973218319"
"0,64132025","-0,04473869149","-0,06901614815","-0,418290512","0,4263000488"
"0,6512742501","-0,1276087208","-0,03346127629","-0,2634591651","0,294642791"
"0,66122725","-0,4108931994","0,09303928748","-0,2296868169","0,4798391024"
"0,6711812501","-0,190506379","0,1344850829","-0,3239544582","0,3991558705"
"0,68113425","-0,06937907752","0,04038057894","-0,2874485368","0,2984471625"
"0,6910882501","-0,09787877206","0,07009203583","-0,1449776191","0,1884453702"
"0,70104125","-0,239270111","0,1683673587","-0,05209109008","0,2971720633"
"0,7109952501","-0,07381937999","0,1720095894","-0,09782391787","0,2112016065"
"0,72094825","-0,2057613261","0,1255062447","-0,009588848948","0,2412083888"
"0,7309022499","-0,2119680359","0,1170096557","0,01723057508","0,2427315399"
"0,74085525","-0,1816930901","0,1310229465","-0,04755306602","0,2289993135"
"0,7508092499","-0,1949924725","0,187921325","-0,09564115226","0,2871997888"
"0,7607622501","-0,1990613671","0,2223064613","-0,1202976912","0,3217407732"
"0,7707162499","-0,200295422","0,1669147642","-0,1480579323","0,2998331968"
"0,7806692501","-0,08335772362","0,08176190883","-0,05018606722","0,127091153"
"0,79062325","0,007512100674","-0,03870549783","0,05045211554","0,06403095487"
"0,8005762501","-0,04023129221","-0,03907781929","0,1005300093","0,1151169649"
"0,81053025","0,08328412179","0,06171239108","0,131344251","0,1673199822"
"0,8204832501","0,02238339733","0,1227182923","0,2225099444","0,2550911036"
"0,83043625","-0,03883819308","0,1383749431","0,1530906308","0,2099827882"
"0,8403902501","-0,0962741499","0,1303543174","0,0767680943","0,179316202"
"0,85034325","-0,06869615927","0,1028843907","0,05042580307","0,1335931202"
"0,8602972501","-0,05371917419","0,02574645996","0,0181012255","0,06225981241"
"0,87025025","-0,07900896661","-0,01189323664","-0,02592129171","0,08399868598"
"0,8802042501","-0,1639717875","-0,003128698915","-0,02150839806","0,1654060066"
"0,89015725","-0,2726057087","0,03716768011","-0,01071853101","0,2753365137"
"0,9001112501","-0,3360541747","0,09218237802","-0,131016807","0,3722840352"
"0,91006425","-0,3023726776","0,04397866309","-0,2307726449","0,3829090918"
"0,9200182501","-0,2540198221","-0,004143629372","-0,2161592835","0,3335686969"
"0,92997125","-0,2452246962","0,008780471385","-0,1210490584","0,2736149171"
"0,9399252501","-0,1782473625","0,01912010282","-0,01227330565","0,1796895506"
"0,94987825","-0,09270632509","-0,01447185874","-0,02118504703","0,09619097476"
"0,9598312501","-0,1055416213","-0,03863065347","-0,01781237304","0,1137920992"
"0,96978525","-0,1506721127","-0,02510107353","-0,05090352058","0,1610071982"
"0,9797382501","-0,1742481959","-0,004014259726","-0,1204666758","0,2118744157"
"0,98969225","-0,1649739637","-0,05709192127","-0,1648645842","0,2401171116"
"0,9996452502","-0,1284691751","-0,107071728","-0,1476433647","0,2230857391"
"1,00959925","-0,129586578","-0,05795672446","-0,0948126018","0,1707076231"
"1,01955225","-0,1650093759","-0,0164901714","-0,05460188448","0,1745891912"
"1,02950625","-0,1697527469","-0,05112746894","-0,02825316131","0,1795222946"
"1,03945925","-0,04768897723","-0,04296534061","-0,008589559793","0,06476140503"
"1,04941325","0,0459917498","0,008213145286","-0,06199568868","0,07762835964"
"1,05936625","-0,02136243694","0,02956703067","-0,1250467998","0,1302584552"
"1,06932025","-0,06589157883","0,01534367859","-0,09910387337","0,1199946097"
"1,07927325","-0,01538778853","0,01088473812","-0,07108693957","0,07354328343"
"1,08922725","0,04329589102","0,0007651081681","-0,1540770561","0,1600464269"
"1,09918025","0,0247777956","-0,0572392711","-0,2310398626","0,2393108678"
"1,10913325","-0,06503463283","-0,1054231055","-0,2124661821","0,2459378238"
"1,11908725","-0,1213562565","-0,0646419923","-0,1797334689","0,2262963721"
"1,12904025","-0,1411053736","-0,03366490558","-0,09859691978","0,1754006981"
"1,13899425","-0,09069510218","0,01361144096","-0,06826273441","0,1143270475"
"1,14894725","-0,07111372713","0,0912976943","-0,05441828191","0,1278819009"
"1,15890125","-0,1487541895","0,153181555","-0,0621915704","0,2223964683"
"1,16885425","-0,1728090865","0,164250188","-0,07928532064","0,2512514014"
"1,17880825","-0,1240118792","0,09153611451","-0,03102474153","0,1572270365"
"1,18876125","-0,0772500876","0,06003906414","-0,008431100249","0,0982005535"
"1,19871525","-0,1351556124","0,07687831432","-0,01739839017","0,1564609176"
"1,20866825","-0,193721434","0,09389078826","-0,03856531084","0,2187024401"
"1,21862225","-0,2230209911","0,09261477962","-0,01688617408","0,2420764399"
"1,22857525","-0,2744083322","0,1538516459","-0,03109198451","0,3161280962"
"1,23852925","-0,241757078","0,1853542511","-0,07069809973","0,3127313615"
"1,24848225","-0,2505146356","0,1631070574","-0,1117367828","0,3191341465"
"1,25843525","-0,2614106662","0,1496295176","-0,2000040114","0,3615606913"
"1,26838925","-0,2386118242","0,1553157887","-0,3096849132","0,420670111"
"1,27834225","-0,2560980688","0,1176024172","-0,3610398388","0,4580025268"
"1,288297","-0,2948295867","0,06410156339","-0,2642730975","0,40109072"
"1,29825","-0,3168131807","0,03877230227","-0,08945772171","0,3314763443"
"1,308204","-0,295417707","0,06606988236","0,05541172385","0,3077455281"
"1,318157","-0,2856944817","0,09062292561","0,1491572088","0,3347860876"
"1,328111","-0,3062206206","0,05260783777","0,1287451637","0,3363242041"
"1,338064","-0,3017284972","0,03392379105","0,01587343633","0,3040442001"
"1,348018","-0,3082177006","0,05301699668","-0,06989878535","0,3204602831"
"1,357971","-0,317693479","0,1038059118","-0,03855127752","0,3364387239"
"1,367925","-0,2693162479","0,1125385822","0,08417183876","0,3037779984"
"1,377878","-0,185196157","0,1189718351","0,2339763343","0,3212426484"
"1,387831","-0,05792734221","0,1008907825","0,297719171","0,3196423498"
"1,397785","0,04350463662","0,1051538412","0,2523155415","0,2767907445"
"1,407738","0,07545535784","0,1269309188","0,1407962751","0,2040307827"
"1,417692","0,1115028576","0,1342551412","0,01835148633","0,1754824984"
"1,427645","0,1690163997","0,1586884627","-0,1175296193","0,2599264953"
"1,437599","0,2024684666","0,1851411201","-0,2205511272","0,352013514"
"1,447552","0,2120596544","0,2035317828","-0,2365619731","0,3773010082"
"1,457506","0,2106274155","0,1674313657","-0,2596806943","0,3739401468"
"1,467459","0,1676134334","0,1293927428","-0,2443750226","0,3233510424"
"1,477413","0,09155983228","0,06061603814","-0,1426439953","0,1800133783"
"1,487366","0,03326024171","-0,01258189246","0,03137265086","0,04742141835"
"1,49732","-0,01221592985","-0,0828274177","0,1838715434","0,2020355279"
"1,507273","-0,06436256848","-0,1602609251","0,2180958813","0,2781940291"
"1,517227","-0,121487088","-0,2154435843","0,1691482544","0,2996434257"
"1,52718","-0,1401687958","-0,1942209689","0,1500775605","0,2826523488"
"1,537133","-0,1768649711","-0,2161722936","0,1034395838","0,297844634"
"1,547087","-0,1631084826","-0,2324793009","0,07091853976","0,2927122166"
"1,55704","-0,1166145666","-0,218332255","0,0376098758","0,2503646011"
"1,566994","-0,1337791778","-0,2315706436","-0,006597998142","0,2675170368"
"1,576947","-0,1415243266","-0,2620590493","-0,08530736804","0,3098086948"
"1,586901","-0,1474892174","-0,2435393094","-0,1358255571","0,3154568852"
"1,596854","-0,1260711954","-0,2226086162","-0,1568398654","0,3000787992"
"1,606808","-0,09172739156","-0,2897187182","-0,1211964083","0,3271687935"
"1,616761","-0,07303271022","-0,3201619542","-0,03958798885","0,3307637564"
"1,626715","-0,06712508552","-0,2710475354","0,03777418256","0,2817790489"
"1,636668","-0,05184795555","-0,2759280601","0,1154509342","0,3035678228"
"1,646621","-0,04048001815","-0,355511004","0,153111096","0,3891911016"
"1,656575","0,02799299676","-0,3314967817","0,1337878025","0,3585706349"
"1,666528","0,06489338603","-0,2558447747","0,09452024102","0,2803600832"
"1,676482","0,1001085712","-0,2633498222","-0,01708322525","0,2822528856"
"1,686435","0,1520793914","-0,2457290916","-0,1498384094","0,3255187808"
"1,696389","0,1735268687","-0,208662276","-0,3040242237","0,4075318984"
"1,706342","0,175693993","-0,255718621","-0,4370454562","0,5359749277"
"1,716296","0,1648271255","-0,2822385214","-0,480730589","0,5813161476"
"1,726249","0,1427929896","-0,2703128327","-0,4869555348","0,5749648323"
"1,736203","0,08859025072","-0,2578778516","-0,4251861334","0,5051063916"
"1,746156","0,07778876234","-0,2367087382","-0,2798834091","0,3747223519"
"1,75611","0,08016941965","-0,2115800366","-0,1167221189","0,2545924209"
"1,766063","0,03938662536","-0,2470151867","0,01214875996","0,2504304316"
"1,776016","0,001094927676","-0,2434330362","0,1224488819","0,2724969186"
"1,78597","0,006470492296","-0,2374144971","0,1889662224","0,303505756"
"1,795923","-0,006177327521","-0,2223156707","0,2951844031","0,3695892972"
"1,805877","-0,03701404452","-0,1521626776","0,3562983316","0,3891940661"
"1,81583","-0,04279014342","-0,08318365932","0,3067554581","0,3207014634"
"1,825784","-0,08379706878","-0,06197215363","0,2468559963","0,2679559282"
"1,835737","-0,0772653269","-0,03465834752","0,1817753166","0,2005327841"
"1,845691","-0,02979887277","-0,007575360239","0,09815253139","0,1028556188"
"1,855644","-0,008782335185","-0,0314781931","0,09813849807","0,1034367964"
"1,865598","-0,02149732489","0,005946325958","0,1018561578","0,1042697015"
"1,875551","-0,03387313955","0,04880130038","0,0688614893","0,0909442753"
"1,885504","-0,05186377957","0,05428964317","0,05930363059","0,09567725742"
"1,895458","-0,05118725672","0,04699684963","0,05604965508","0,08927711331"
"1,905411","-0,003371796906","-0,0009855481982","0,1087278056","0,1087845395"
"1,915365","-0,01548762973","-0,01260864347","0,1418493587","0,1432483338"
"1,925318","-0,05762237336","-0,03956796214","0,1226950496","0,141209195"
"1,935272","-0,07580600806","-0,07362009957","0,09553882599","0,1424574926"
"1,945225","-0,07446560696","-0,09528023288","0,06002342284","0,1350046691"
"1,955179","-0,07161187336","-0,1050475681","-0,00555134654","0,1272559209"
"1,965132","-0,07739495236","-0,1115113726","-0,1034354907","0,1706565722"
"1,975086","-0,03661493551","-0,07654195324","-0,2340108329","0,2489184485"
"1,985039","-0,02054587327","-0,03382102624","-0,3200432557","0,3224805114"
"1,994993","-0,02357809313","-0,006315431446","-0,3485677278","0,3494213388"
"2,004946","-0,02833513197","-0,01509137124","-0,3459709793","0,3474572603"
"2,014899","-0,04057667993","-0,03537258491","-0,2986383533","0,3034510715"
"2,024853","-0,02183247998","-0,03103599742","-0,1877605265","0,1915565338"
"2,034806","-0,02916240335","-0,008584735841","-0,003061602116","0,03055350824"
"2,04476","-0,05348141178","0,02110187039","0,08397069454","0,1017675188"
"2,054713","-0,06019456353","0,01791499168","0,1037839848","0,1213072459"
"2,064667","-0,04407649431","-0,0198434034","0,1475983411","0,1553118421"
"2,07462","-0,06700291526","-0,02648584038","0,1647230816","0,1797903891"
"2,084574","-0,07353951763","0,04176432252","0,09387236953","0,1263500734"
"2,094527","-0,007983532436","0,06653020442","-0,03539436579","0,07578103997"
"2,104481","0,01513464063","0,04447889239","-0,148350293","0,1556124631"
"2,114434","-0,1001109466","0,03888339937","-0,1455494767","0,1808833065"
"2,124387","-0,1363671189","0,06098543599","-0,1060006642","0,1831702906"
"2,134341","-0,05520586532","0,04827344298","-0,08212765217","0,1101043329"
"2,144294","-0,05381477617","0,005858033001","-0,004331617355","0,05430570498"
"2,154248","-0,1024458129","0,01555417836","0,05786755443","0,1186833219"
"2,164201","-0,1421620385","0,03557826072","0,07658624589","0,1653520816"
"2,174155","-0,1088971556","0,03834501699","0,1500623578","0,1893347355"
"2,184108","-0,05533874329","0,03888544589","0,1885165715","0,2002821813"
"2,194062","-0,06880626965","0,0599066247","0,1649832827","0,188527425"
"2,204015","-0,05000867732","0,07787482604","0,09562945783","0,1330802372"
"2,213969","-0,04585225716","0,0564595449","0,02032316744","0,07551914215"
"2,223922","-0,02863553267","0,04990598559","-0,04157077968","0,07098401829"
"2,233875","0,01260776639","0,05971498221","-0,105085575","0,1215228906"
"2,243829","0,01195565566","0,05801110357","-0,196516732","0,2052487559"
"2,253782","-0,0164558921","0,06348322034","-0,2457315767","0,2543323091"
"2,263736","-0,03411532391","0,07068859801","-0,2475477219","0,2596932957"
"2,273689","-0,01904386975","0,0267011641","-0,1361003762","0,1399961912"
"2,283643","0,0200461556","0,01256230429","-0,01556119502","0,02831626094"
"2,293595917","0,05447441518","0,04440857962","0,04120766759","0,08147180937"
"2,303549917","0,06573469073","0,04674454227","0,05440190971","0,0972916727"
"2,313502917","0,1086399877","0,04824464545","0,09034766793","0,1493080502"
"2,323456917","0,06379129551","0,04781589836","0,1343526435","0,1562252295"
"2,333409917","0,03120037727","0,02831631124","0,1132383478","0,1208230128"
"2,343362917","0,02897372101","0,003042598665","0,04559892654","0,05411096023"
"2,353316917","0,00553435307","0,006817999631","0,01389356911","0,0164361019"
"2,363269917","-0,03370620154","0,0525017108","-0,05678932786","0,08436566492"
"2,373223917","-0,08914405514","0,07476966217","-0,09812797308","0,1522046781"
"2,383176917","-0,1012893068","0,0903419669","-0,1503149575","0,2025235322"
"2,393130917","-0,1150767489","0,1059500858","-0,1493466586","0,2162695153"
"2,403083917","-0,1157036801","0,08440499648","-0,07550743461","0,1619040385"
"2,413037917","-0,06883674826","0,05914619431","-0,02502315938","0,0941431289"
"2,422990917","-0,0631424373","0,03902314782","0,001689845324","0,07424708096"
"2,432944917","-0,1425956827","0,04086779818","0,01125647485","0,1487629452"
"2,442897917","-0,1466149491","0,06578673095","0,04686484873","0,167392208"
"2,452850917","-0,09039389748","0,0582844609","0,02086461961","0,109560337"
"2,462804917","-0,1093938035","0,0399424763","-0,04258585632","0,123999842"
"2,472757917","-0,1299575473","0,04397179261","-0,1233645558","0,1845028354"
"2,482711917","-0,07458686359","0,02853689745","-0,1837721407","0,2003740364"
"2,492664917","-0,02343644433","-0,01218369707","-0,1557353264","0,1579594926"
"2,502618917","-0,05515729688","0,002346926183","-0,1678519267","0,176697778"
"2,512571917","-0,08225738727","0,01777188107","-0,1619713819","0,182529028"
"2,522525917","-0,05425086882","-0,02107365757","-0,09108090878","0,1080878705"
"2,532478917","-0,007196460664","-0,04121775404","-0,04521125615","0,061601542"
"2,542431917","-0,01402578928","-0,05446403638","0,005088831782","0,05647079096"
"2,552385917","-0,02249796622","-0,05281088233","0,08145171404","0,09964702452"
"2,562338917","0,02046989601","-0,07795990303","0,1663217103","0,1848233601"
"2,572292917","-0,01359309532","-0,0836653237","0,1624549466","0,1832382829"
"2,582245917","-0,02328101803","-0,05078058288","0,07700022876","0,09512995652"
"2,592199917","-0,0370138618","-0,07471455216","-0,06409951687","0,1051714711"
"2,602152917","-0,04214716896","-0,07618147239","-0,2005916566","0,2186710161"
"2,612106917","-0,03901660625","-0,01833321378","-0,2995587051","0,3026447093"
"2,622059917","-0,0663182063","0,0002811048925","-0,2892991805","0,2968033008"
"2,632013917","-0,04654102262","-0,02645923555","-0,1505669725","0,1598016619"
"2,641966917","-0,01312195592","0,01607077986","0,01241480827","0,02417815454"
"2,651919917","0,03345922977","0,03586287394","0,0673324424","0,0833026025"
"2,661873917","0,1807784029","-0,03254911065","-0,1229464799","0,2210341885"
"2,671826917","0,1037201405","-0,115649301","-0,2596192986","0,3025472005"
"2,681780917","-0,02410127275","-0,08412126034","-0,1755649889","0,1961640209"
"2,691733917","-0,1617888757","-0,006329318583","-0,1582063597","0,2263734809"
"2,701687917","-0,1312216057","0,03530373394","-0,04557261407","0,1433259453"
"2,711640917","0,004334248602","-0,04971317366","-0,04031187415","0,06415007828"
"2,721594917","-0,09620584711","-0,1167243116","-0,1569889694","0,2180038221"
"2,731547917","-0,1629570032","0,001312115192","-0,1731606138","0,2377841557"
"2,741501917","-0,1705743903","0,0426978305","-0,1826980072","0,2535691014"
"2,751454917","-0,1853405832","-0,005328421444","-0,1344625711","0,2290408411"
"2,761407917","-0,2145096378","0,003742802739","-0,05476736069","0,22142235"
"2,771361917","-0,2913733341","0,04473105356","-0,0009086573124","0,2947882505"
"2,781314917","-0,2778637809","0,07743686959","0,05534740448","0,2937142909"
"2,791268917","-0,1841867814","0,1003227255","0,04094278872","0,2136954179"
"2,801221917","-0,15331933","0,1004095566","-0,05011707008","0,190001623"
"2,811175917","-0,1792203757","0,1358569859","-0,09878169179","0,2456316069"
"2,821128917","-0,2072731968","0,1729721873","-0,05444751799","0,2754016846"
"2,831082917","-0,1709999214","0,1789794704","0,01463324189","0,2479692637"
"2,841035917","-0,148150903","0,1289490853","0,01313869357","0,1968481189"
"2,850988917","-0,2205965162","0,1108838202","-0,03957512498","0,2500484654"
"2,860942917","-0,3012945241","0,1291150001","-0,1367254436","0,3551660463"
"2,870895917","-0,3165579497","0,1208884062","-0,2197921586","0,4038954509"
"2,880849917","-0,2805584702","0,1428585881","-0,1553423935","0,3510739105"
"2,890802917","-0,2529149542","0,1830234048","-0,07995073378","0,3222664435"
"2,900756917","-0,4098218434","0,1901917988","-0,2246400851","0,5045691543"
"2,910709917","-0,3415058993","0,1922701916","-0,2612945259","0,4710296541"
"2,920663917","-0,3135617633","0,1580316742","-0,3131493884","0,4704864811"
"2,930616917","-0,3154266597","0,1417306602","-0,4038426268","0,5316675887"
"2,940569917","-0,3410843881","0,1284795539","-0,5157232511","0,6315188258"
"2,950523917","-0,399290204","0,07939393267","-0,4998404592","0,6446522692"
"2,960476917","-0,4215805209","0,1114384286","-0,3348168308","0,5497735617"
"2,970430917","-0,3661294746","0,1791013849","-0,2344926435","0,4702285594"
"2,980383917","-0,4506516346","0,2008240834","-0,2928121877","0,5737213483"
"2,990337917","-0,4181482419","0,2428192247","-0,5980684197","0,769087097"
"3,000290917","-0,2538785753","0,2055968732","-0,7572267061","0,8246918757"
"3,010244917","-0,2225255492","0,3205079632","-0,95624897","1,032789943"
"3,020197917","-0,2045022013","0,3807668826","-0,9578259641","1,050825935"
"3,030150917","-0,2275332874","0,3928505923","-0,6350924045","0,7806698066"
"3,040104917","-0,2219058174","0,4338986309","-0,1088213611","0,4993518823"
"3,050057917","-0,2227137199","0,4996897472","0,361833306","0,6559074522"
"3,060011917","-0,1963249433","0,4946004769","0,692417922","0,8732787034"
"3,069964917","-0,1589709563","0,5334394374","0,8705176789","1,033262032"
"3,079918917","-0,08685264096","0,6330493873","0,8270179027","1,045109334"
"3,089871917","0,04352992583","0,6850514536","0,5435869879","0,8756010289"
"3,099825917","0,1274810687","0,7119365126","0,1500717133","0,7386653775"
"3,109778917","0,2156342401","0,7944449647","-0,221187889","0,8523878282"
"3,119732917","0,3258009358","0,8743253857","-0,5098970854","1,063290256"
"3,129685917","0,4038436135","0,8962639926","-0,6650435972","1,186870589"
"3,139638917","0,4408547344","0,9283100966","-0,7083393055","1,24814146"
"3,149592917","0,4367376003","0,9523566248","-0,7733083034","1,302201445"
"3,159545917","0,4241050928","0,9408944741","-0,7462251699","1,273577459"
"3,169499917","0,3867388998","0,9845952483","-0,6860994208","1,260843842"
"3,179452917","0,3020904033","1,024720742","-0,680886628","1,266853508"
"3,189406917","0,1519874804","1,009846741","-0,5716138619","1,170313224"
"3,199359917","-0,03127898578","0,9678314272","-0,3256887424","1,021640447"
"3,209313917","-0,1510216301","0,9370747805","-0,01725396395","0,9493231148"
"3,219266917","-0,2408248857","0,8912169684","0,3476736885","0,9864792467"
"3,229219917","-0,3198006328","0,8751798101","0,7298798633","1,183611744"
"3,239173917","-0,316568292","0,8829073441","0,9214165217","1,314819101"
"3,249126917","-0,2928754838","0,9154815978","0,9308714694","1,338059901"
"3,259080917","-0,2009748685","1,032625009","0,8300403285","1,34002696"
"3,269033917","-0,07388172593","1,172898689","0,5643387562","1,303697847"
"3,278987917","0,03707368612","1,248094759","0,1576970673","1,258564004"
"3,288940917","0,1507327411","1,275816262","-0,2270298421","1,30459574"
"3,298894417","0,2285211379","1,282961998","-0,5152502114","1,401319443"
"3,308847417","0,2130506844","1,257075205","-0,6737454236","1,442068501"
"3,318800417","0,2522579464","1,274766249","-0,6373371506","1,447363708"
"3,328754417","0,2377751242","1,219654633","-0,5304371846","1,351095126"
"3,338707417","0,1573980187","1,179316446","-0,4264584875","1,263894085"
"3,348661417","0,1009338691","1,177506733","-0,366321044","1,237295785"
"3,358614417","0,01082326926","1,106293348","-0,3303858107","1,154624137"
"3,368568417","-0,01014133774","1,117718076","-0,3181744856","1,162166747"
"3,378521417","0,005290158726","1,144688651","-0,3006860483","1,183533773"
"3,388475417","-0,03355161577","1,083246839","-0,3103035486","1,127314383"
"3,398428417","-0,08612751313","1,071072937","-0,307077055","1,117547091"
"3,408381417","-0,1014152777","1,076666383","-0,2905194944","1,119775484"
"3,418335417","-0,09590880856","1,049095299","-0,2207984644","1,07636026"
"3,428288417","-0,1147905643","1,070867699","-0,105245204","1,082132642"
"3,438242417","-0,1107810554","1,079445126","0,04303316832","1,085967806"
"3,448195417","-0,03925575737","1,067971281","0,1405904531","1,077900435"
"3,458149417","-0,0688838549","1,037192853","0,1936703074","1,057365683"
"3,468102417","-0,140302697","1,003964296","0,3147468477","1,061458776"
"3,478056417","-0,09934631355","1,007712946","0,3725459898","1,078955785"
"3,488009417","-0,01873309024","1,046472969","0,3105508858","1,091741021"
"3,497962417","0,02236073937","1,063714069","0,1878032112","1,080396997"
"3,507916417","0,03415402517","1,091130933","0,04866403699","1,092749467"
"3,517869417","0,03559507146","1,15797791","-0,02245915532","1,158742535"
"3,527823417","0,02859887794","1,196712644","-0,01138920665","1,197108501"
"3,537776417","0,07829348668","1,19884907","0,1015064943","1,205683429"
"3,547730417","0,1650375522","1,232466467","0,2873473799","1,276236461"
"3,557683417","0,1635392762","1,266589941","0,3956015611","1,336972613"
"3,567636417","0,1159551103","1,274666554","0,4785074776","1,366451542"
"3,577590417","0,006863023192","1,227338167","0,6236394632","1,376710666"
"3,587543417","-0,2037889141","1,239369836","0,8228622866","1,501555812"
"3,597497417","-0,3937386382","1,106574306","1,158200689","1,649534979"
"3,607450417","-0,5093565834","0,9537962092","1,439944097","1,800724949"
"3,617404417","-0,6642783429","0,7461305912","1,802775523","2,061061902"
"3,627357417","-0,7963388778","0,686606082","2,179600505","2,419967331"
"3,637311417","-0,7297396763","0,7042361681","2,557848115","2,751555116"
"3,647264417","-0,6613556852","0,7299759038","2,970889581","3,129926687"
"3,657217417","-0,568088868","0,6783378267","3,187642357","3,308161267"
"3,667171417","-0,4266266681","0,475552441","2,946286837","3,014758127"
"3,677124417","-0,4022217786","0,3600697857","2,292229573","2,354941406"
"3,687078417","-0,4664393362","0,2368096027","1,616632336","1,699159955"
"3,697031417","-0,5325144079","-0,04411227196","1,171000244","1,287151529"
"3,706985417","-0,6186406785","-0,3696599503","1,066437995","1,287111015"
"3,716938417","-0,7600909647","-0,7235381193","1,501663797","1,832004325"
"3,726892417","-0,8128479065","-1,00276167","2,425354301","2,747470869"
"3,736845417","-0,7488833872","-1,160716307","3,31023625","3,586886213"
"3,746798417","-0,6243862988","-1,252814924","4,062912653","4,297285505"
"3,756752417","-0,5977353477","-1,125661372","4,215784598","4,404229881"
"3,766705417","-0,3376163314","-1,312071192","4,087349337","4,306035323"
"3,776659417","0,01845520131","-1,372848175","3,262857431","3,539956401"
"3,786612417","0,06227635503","-1,063671531","1,803759609","2,094952076"
"3,796566417","-0,05984003954","-0,7659413964","0,04422716975","0,7695473316"
"3,806519417","-0,3740501129","-0,6917001763","-1,390273755","1,597255062"
"3,816473417","-0,5353945271","-0,5857524294","-2,285393593","2,419251348"
"3,826426417","-0,6665339794","-0,4881409116","-2,593637753","2,722040758"
"3,836379417","-0,6760719576","-0,4365468349","-2,198750136","2,341398854"
"3,846333417","-0,4679148079","-0,4288723643","-1,607221828","1,72801556"
"3,856286417","-0,270146918","-0,4661321381","-1,189977967","1,306256518"
"3,866240417","-0,09727172144","-0,574978496","-0,9251949924","1,093639718"
"3,876193417","-0,01118294612","-0,7267739685","-0,8821548074","1,14303218"
"3,886147417","0,06738477498","-0,8349221689","-1,003161181","1,306892532"
"3,896100417","0,0001437684149","-0,8554970589","-1,119108544","1,408644445"
"3,906053417","-0,03955677934","-0,7976217569","-1,068407337","1,333888842"
"3,916007417","0,03388227582","-0,7304499668","-0,962813639","1,209014171"
"3,925960417","0,1185267889","-0,6384514837","-0,9233718306","1,128842077"
"3,935914417","0,166497273","-0,5545756602","-0,9466379017","1,109684109"
"3,945867417","0,1755208424","-0,5459618345","-1,035424363","1,183632334"
"3,955821417","0,1304969895","-0,5506653348","-1,116997699","1,252176359"
"3,965774417","0,1302290408","-0,5448014545","-1,235059415","1,356148954"
"3,975727417","0,113907854","-0,5691596393","-1,365172827","1,483446845"
"3,985681417","0,06460639738","-0,5777541693","-1,543841518","1,649672846"
"3,995634417","0,009167630151","-0,5737809862","-1,749936574","1,841626096"
"4,005588417","-0,06108447321","-0,5672541779","-1,861937066","1,947387546"
"4,015541417","-0,05259212337","-0,5322059673","-1,80038869","1,878139653"
"4,025495417","-0,002539957389","-0,4759810419","-1,638314981","1,7060599"
"4,035448417","0,09144131653","-0,4402218099","-1,540554798","1,604825798"
"4,045402417","0,2185940641","-0,4329695083","-1,431809451","1,511728899"
"4,055355417","0,3060075992","-0,3736309406","-1,283001906","1,37088826"
"4,065308417","0,3880568256","-0,2039241309","-1,236270373","1,311692642"
"4,075262417","0,4331642206","-0,1073426002","-1,315398989","1,38903858"
"4,085215417","0,4199595266","-0,07308215573","-1,492763166","1,552433211"
"4,095169417","0,3524623389","0,02022025645","-1,650311714","1,687651419"
"4,105122417","0,1434771504","0,08653075173","-1,676136526","1,684490107"
"4,115076417","0,04567018948","0,1469900845","-1,540923173","1,548591643"
"4,125029417","-0,01116606228","0,2045715639","-1,268873863","1,28530739"
"4,134982417","-0,1028803707","0,2500295725","-1,07746292","1,110867005"
"4,144936417","-0,1219234364","0,2619270484","-0,9628908223","1,00530087"
"4,154889417","-0,1084377837","0,2831753916","-0,899329834","0,9490738673"
"4,164843417","-0,1095024155","0,3513018858","-0,8222325414","0,9008163776"
"4,174796417","-0,1300820564","0,4283515236","-0,6909607959","0,8233062557"
"4,184750417","-0,1411400914","0,5033292004","-0,5429677677","0,7537073744"
"4,194703417","-0,03997639015","0,5870319463","-0,2319666463","0,6324659222"
"4,204657417","0,1644408073","0,754741201","0,2701951575","0,8183400776"
"4,214610417","0,3981967016","0,9069708292","0,7769838631","1,258912476"
"4,224563417","0,461010635","0,9558528212","1,214721045","1,612988728"
"4,234517417","0,2431404562","0,9688602448","1,779776085","2,0409337"
"4,244470417","-0,1911405095","0,9061915416","2,29372763","2,473641899"
"4,254424417","-0,6471875162","0,8528501706","2,671513894","2,878053436"
"4,264377417","-1,20305563","1,045461986","2,970352222","3,370953268"
"4,274331417","-1,557563325","1,12011792","3,07066413","3,620724495"
"4,284284417","-1,65104437","1,029094021","2,893108165","3,486410313"
"4,29423725","-1,534730825","0,9781181413","2,539152812","3,124005571"
"4,30419125","-1,203511129","0,8478006613","2,111031961","2,5736474"
"4,31414425","-0,7992864592","0,5624198462","1,601710242","1,876339689"
"4,32409825","-0,5302020534","0,1906500743","1,224204644","1,347641896"
"4,33405125","-0,3617770996","-0,165192613","1,172334579","1,237957848"
"4,34400525","-0,1055382226","-0,4253036624","1,158022934","1,238159374"
"4,35395825","0,05453354515","-0,6958385432","1,077991508","1,284223842"
"4,36391125","0,05989295684","-0,9951550274","1,060449861","1,45549806"
"4,37386525","-0,1066769678","-1,411359691","1,282226565","1,909822274"
"4,38381825","-0,2512978336","-1,830026618","1,688974673","2,502954948"
"4,39377225","-0,08142013907","-1,983088159","2,076481934","2,872463247"
"4,40372525","0,1454568349","-1,826839447","1,993767806","2,708063906"
"4,41367925","0,3154512545","-1,658072285","1,359869403","2,167477333"
"4,42363225","0,3441082757","-1,561339896","0,5155378944","1,679872643"
"4,43358525","0,356405628","-1,331355309","-0,4147108465","1,439276561"
"4,44353925","0,4111835868","-1,218376286","-0,9575441283","1,603247789"
"4,45349225","0,373974428","-1,109257009","-1,121178458","1,620909967"
"4,46344625","0,2676488047","-1,130825487","-1,270146217","1,721532334"
"4,47339925","0,09582519338","-1,237907448","-1,018480886","1,605895586"
"4,48335325","-0,008126752675","-1,157960515","-0,6387252796","1,322463073"
"4,49330625","0,01254644372","-1,053678493","-0,4339423388","1,139605955"
"4,50326025","-0,04381673176","-0,9112501871","-0,3890205199","0,9917831287"
"4,51321325","-0,1816066244","-0,7069825322","-0,5114682323","0,8912940141"
"4,52316625","-0,2105557871","-0,544945296","-0,62494807","0,8554877003"
"4,53312025","-0,07332189158","-0,3233098758","-0,7458415926","0,816201603"
"4,54307325","0,06870478392","-0,1155343301","-0,9894114536","0,9985006526"
"4,55302725","0,1516304348","-0,09527043879","-1,241855049","1,254700047"
"4,56298025","0,2748255676","0,01254227757","-1,472744054","1,498219426"
"4,57293425","0,3853631596","0,06899816796","-1,622802903","1,669357593"
"4,58288725","0,4364409272","0,1642140815","-1,652089852","1,716638525"
"4,59284025","0,4604820101","0,1503370307","-1,600056649","1,671773366"
"4,60279425","0,5569072375","0,1851406085","-1,648924754","1,750250142"
"4,61274725","0,5597890377","0,3161744455","-1,883499843","1,990201424"
"4,62270125","0,4303618694","0,285939882","-2,072093014","2,13554265"
"4,63265425","0,2466339848","0,2674279627","-2,097596229","2,128909575"
"4,64260825","0,1098779895","0,2575672182","-2,080958562","2,099714881"
"4,65256125","0,0654210607","0,279401964","-1,996338242","2,016856898"
"4,66251425","0,02077471867","0,3547173907","-1,833247703","1,867365298"
"4,67246825","-0,08572076619","0,2994392757","-1,570777302","1,601359816"
"4,68242125","-0,1599293149","0,2734371462","-1,33800257","1,374989504"
"4,69237525","-0,2191276225","0,2755403166","-1,170602049","1,222394591"
"4,70232825","-0,2379403811","0,3424381647","-0,9947797823","1,078640968"
"4,71228225","-0,20931689","0,3593253621","-0,812222693","0,9124877968"
"4,72223525","-0,366051195","0,37871948","-0,6472961283","0,8345143495"
"4,73218825","-0,4405831313","0,3475730433","-0,4902913713","0,7451886639"
"4,74214225","-0,355876455","0,3947187046","-0,5223633492","0,7451941865"
"4,75209525","-0,262482808","0,4166754379","-0,580618574","0,7613367018"
"4,76204925","-0,2155743792","0,4614450831","-0,4574352819","0,6845808315"
"4,77200225","-0,2047154785","0,5174094419","-0,2891500765","0,6270795201"
"4,78195625","-0,2898005427","0,5356736585","-0,1297859681","0,6227158425"
"4,79190925","-0,2826073346","0,6400166371","0,04064165711","0,7008137739"
"4,80186225","-0,1700316956","0,6872741995","0,1866875625","0,732194543"
"4,81181625","-0,04327275798","0,7065718384","0,358748315","0,793609884"
"4,82176925","0,04052836731","0,7109440939","0,5577963066","0,9045555665"
"4,83172325","0,1984189774","0,7185901324","0,8157924181","1,10510594"
"4,84167625","0,240629077","0,8115077247","1,038460237","1,339718927"
"4,85163025","0,2535760916","0,7599763593","1,253468789","1,487631979"
"4,86158325","0,193966944","0,787319767","1,607680834","1,800592473"
"4,87153625","0,1509652775","0,7831154727","1,936498421","2,094298569"
"4,88149025","0,1188383907","0,64050678","2,146849666","2,243509524"
"4,89144325","0,1049939564","0,567792341","2,354562061","2,424329675"
"4,90139725","0,04143724389","0,5013147616","2,423580256","2,475232271"
"4,91135025","-0,06752057657","0,4448460073","2,307237037","2,350699841"
"4,92130425","-0,1112982051","0,4360346919","2,089893107","2,137794832"
"4,93125725","-0,1781968206","0,3573956347","1,698586911","1,744902072"
"4,94121025","-0,232681907","0,1528005358","1,161944661","1,194823949"
"4,95116425","-0,2820304702","0,01252553992","1,007312704","1,046124734"
"4,96111725","-0,210072533","-0,1373227732","1,26913231","1,293709718"
"4,97107125","-0,1240795789","-0,2850926205","1,775391258","1,802411624"
"4,98102425","-0,1727496276","-0,3198539155","2,311711911","2,340119852"
"4,99097825","-0,2255731545","-0,4619385881","2,412958789","2,467111798"
"5,00093125","-0,06732165246","-0,735057792","2,204410826","2,324708423"
"5,01088425","0,123835878","-1,039593135","1,609129774","1,919736399"
"5,02083825","0,04428416183","-1,404994705","1,161610785","1,82354348"
"5,03079125","-0,04498737174","-1,451147947","1,403798949","2,019531064"
"5,04074525","-0,1633321203","-1,159475382","1,832923767","2,175010363"
"5,05069825","-0,5246490989","-0,7790256377","1,815510174","2,044068202"
"5,06065225","-1,041748273","-0,6222408823","1,362743894","1,824690138"
"5,07060525","-1,246786152","-0,6041218228","0,7702449471","1,585154934"
"5,08055825","-1,274675471","-0,5536505576","0,111320461","1,394173139"
"5,09051225","-1,273206504","-0,4023398924","-0,3349618417","1,376637798"
"5,10046525","-0,9810614104","-0,3248004773","-0,5381555092","1,165155866"
"5,11041925","-0,7774804379","-0,443608371","-0,5004538321","1,025533157"
"5,12037225","-0,8195562708","-0,4988457382","-0,4520388865","1,060593563"
"5,13032625","-0,7754545239","-0,5516466437","-0,4187237906","1,039698683"
"5,14027925","-0,6437383168","-0,5049482214","-0,3066110319","0,8737173752"
"5,15023225","-0,5733967511","-0,3969500021","-0,4943470001","0,8548286933"
"5,16018625","-0,463145965","-0,3503998432","-0,7428998584","0,9429657653"
"5,17013925","-0,3497025993","-0,2079515104","-0,8805053079","0,9699615126"
"5,18009325","-0,3654084398","-0,08379677642","-1,072287549","1,135933896"
"5,19004625","-0,353234683","-0,04336306091","-1,364373513","1,410024886"
"5,19999925","-0,291138879","0,004650327154","-1,677014778","1,702105179"
"5,20995325","-0,2840985938","0,08996697765","-1,999501585","2,021586668"
"5,21990625","-0,243332793","0,1310021889","-2,286609814","2,303249197"
"5,22986025","-0,0723272071","0,1479619283","-2,585769739","2,591009282"
"5,23981325","-0,0615558867","0,1756256537","-2,732461762","2,738791846"
"5,24976725","-0,1714827552","0,2218417173","-2,839064105","2,852876631"
"5,25972025","-0,1445230529","0,2653549786","-2,850901208","2,866869002"
"5,26967325","-0,06521927694","0,2540232939","-2,61998823","2,63308179"
"5,27962725","-0,0340285293","0,2697983509","-2,382142793","2,397614101"
"5,28958025","-0,01258521806","0,2474760935","-2,154972033","2,169172023"
"5,29953425","-0,02337439075","0,2670014449","-1,880614827","1,899617925"
"5,30948725","-0,0212870444","0,3651765977","-1,641584744","1,681846473"
"5,31944125","-0,08313483506","0,399129771","-1,573647115","1,625601802"
"5,32939425","-0,1250976706","0,4230432019","-1,424329693","1,491083516"
"5,33934725","-0,2411850376","0,4972068368","-1,16375262","1,288295394"
"5,34930125","-0,296477661","0,4644438642","-0,9558870274","1,10332548"
"5,35925425","-0,2229871138","0,4904518409","-0,5825715441","0,7935085791"
"5,36920825","-0,2357007148","0,5535680022","-0,1711772382","0,6255349766"
"5,37916125","-0,1854747403","0,5753796515","0,02292167008","0,6049694419"
"5,38911525","-0,01731981821","0,6301317729","0,1974581337","0,6605722836"
"5,39906825","-0,02016185738","0,6928908156","0,5235479951","0,8686810036"
"5,40902125","-0,0822366662","0,7892802653","0,8361027217","1,15273326"
"5,41897525","-0,05686260078","0,875186242","0,8371739316","1,212453919"
"5,42892825","0,002200087979","0,8979675789","0,9405959737","1,300412011"
"5,43888225","0,009168945774","0,9571707836","1,285357164","1,602623792"
"5,44883525","0,09091758873","0,9809538947","1,552055687","1,838318092"
"5,45878825","0,1841097444","0,9065838166","1,612565013","1,859074107"
"5,46874225","0,1900712365","0,779238988","1,701620446","1,881183834"
"5,47869525","0,18153379","0,7110584801","1,780699945","1,925993503"
"5,48864925","0,1976169587","0,5812175847","1,83970069","1,939423876"
"5,49860225","0,2404607503","0,4968402529","1,943680556","2,020535997"
"5,50855625","0,2788012723","0,4576589013","2,001309544","2,071816042"
"5,51850925","0,3402955987","0,3242696597","2,042727127","2,096112121"
"5,52846225","0,3390291284","0,2131460306","2,026665995","2,065852617"
"5,53841625","0,09290414371","0,05717692517","2,013465906","2,016418938"
"5,54836925","-0,2058267418","-0,1704113261","2,212998632","2,229073263"
"5,55832325","-0,4203579412","-0,5191864838","2,553096083","2,639044337"
"5,56827625","-0,7202750076","-0,7763582841","2,947948616","3,132399928"
"5,57823025","-0,9681185254","-0,884551435","3,271719471","3,524745809"
"5,58818325","-0,9628570546","-1,127048697","3,486036297","3,78811055"
"5,59813625","-0,6683778258","-1,169301847","3,594201016","3,838264799"
"5,60809025","-0,2775126556","-0,7399838519","3,125569485","3,223937652"
"5,61804325","-0,01015299562","-0,4137889234","2,244636161","2,282480198"
"5,62799725","0,2221067424","-0,12369898","1,162936349","1,190400686"
"5,63795025","0,5073059649","-0,069553288","-0,1615726018","0,5369382716"
"5,64790325","0,8423883323","-0,05440249443","-1,347416003","1,590002396"
"5,65785725","1,112820156","-0,1214742607","-2,101393996","2,380962289"
"5,66781025","1,154760626","-0,2404257767","-2,266585439","2,555129392"
"5,67776425","0,9894259255","-0,3427344724","-1,909497149","2,177753416"
"5,68771725","0,7724570218","-0,4226881663","-1,357981921","1,618477691"
"5,69767125","0,5628358391","-0,39970225","-0,9598034924","1,182272733"
"5,70762425","0,4059743389","-0,4898531956","-0,9616664153","1,153071382"
"5,71757725","0,2327729408","-0,5958855079","-1,071941394","1,248327334"
"5,72753125","0,07383571565","-0,5321347044","-1,239761161","1,351157575"
"5,73748425","0,1295674284","-0,4314803687","-1,43731285","1,506264006"
"5,74743825","0,3126157935","-0,3266018582","-1,666620768","1,726853263"
"5,75739125","0,4169643635","-0,2929928666","-2,042897281","2,105500748"
"5,76734525","0,4895834197","-0,2045267596","-2,262501744","2,32388409"
"5,77729825","0,5979162094","-0,1260107133","-2,244682939","2,326367123"
"5,78725125","0,6128156823","-0,1197407439","-2,282545415","2,366409617"
"5,79720525","0,5861700667","-0,0872802186","-2,262523379","2,338851261"
"5,80715825","0,5603648423","-0,07837476298","-2,278824247","2,348018592"
"5,81711225","0,4640916791","-0,09104246333","-2,28040241","2,328927858"
"5,82706525","0,3203865603","-0,03867786974","-2,182879039","2,206604728"
"5,83701825","0,2441724897","-0,0182308875","-2,150645093","2,164538493"
"5,84697225","0,2001171002","-0,0486691533","-2,057940413","2,068220076"
"5,85692525","0,1566406216","-0,0381078393","-1,876065693","1,882979282"
"5,86687925","0,07439123768","-0,06586055204","-1,72900822","1,731860587"
"5,87683225","-0,0155976853","-0,08532103591","-1,507312208","1,509805636"
"5,88678625","-0,1018410647","-0,07628365248","-1,240613101","1,247121351"
"5,89673925","-0,1591401053","-0,04225687735","-1,077779839","1,090284641"
"5,90669225","-0,121949822","-0,02288095884","-0,9798524255","0,9876771097"
"5,91664625","-0,1479086821","0,09387448914","-0,9456269181","0,9617170406"
"5,92659925","-0,1814998945","0,07006323829","-0,8894340062","0,9104635745"
"5,93655325","-0,2021804364","0,07932457007","-0,6415056306","0,6772730545"
"5,94650625","-0,1867448104","0,1995066326","-0,229052394","0,3565690955"
"5,95646025","-0,193468414","0,2644499027","0,2218638271","0,3957111775"
"5,96641325","-0,1032632354","0,4061219446","0,5100146145","0,6600857797"
"5,97636625","-0,02448020887","0,4102823847","0,6567844051","0,7747881456"
"5,98632025","-0,03166181395","0,3957511036","0,7691240358","0,8655479126"
"5,99627325","0,008370471932","0,3684614173","0,9416338545","1,011191474"
"6,00622725","0,04134434626","0,3451063954","1,158938023","1,209935998"
"6,01618025","-0,02447818061","0,3545243595","1,311428145","1,358723843"
"6,02613325","-0,1066837469","0,3118090604","1,380390206","1,419184073"
"6,03608725","-0,2469430832","0,2233980634","1,507375942","1,543719474"
"6,04604025","-0,5360593555","0,106918604","1,591940129","1,683170994"
"6,05599425","-0,8230617497","-0,113082154","1,605749499","1,807940726"
"6,06594725","-0,9156831805","-0,1891694131","1,574729435","1,831402071"
"6,07590125","-0,7531352632","-0,1401046957","1,616021302","1,788397858"
"6,08585425","-0,485948023","-0,05225466594","1,633786313","1,705325115"
"6,09580725","-0,394486424","0,03548178166","1,491017187","1,542728346"
"6,10576125","-0,4888555145","0,1096084694","1,195181989","1,29593739"
"6,11571425","-0,5925967415","0,2128023239","0,8311793661","1,042743912"
"6,12566825","-0,6021848961","0,161858019","0,636489889","0,8910353788"
"6,13562125","-0,5970333529","0,001369710267","0,619149971","0,8601147523"
"6,14557425","-0,541799896","-0,1645492","0,8196445638","0,9962132189"
"6,15552825","-0,4022719916","-0,3888267577","1,169367117","1,29631341"
"6,16548125","-0,3768338992","-0,7178563068","1,602537623","1,795953312"
"6,17543525","-0,4741621924","-0,9935551561","2,2164251","2,474777133"
"6,18538825","-0,5225172772","-1,126021415","2,898717399","3,15333333"
"6,19534125","-0,4929709676","-0,9211808058","3,292894578","3,454670629"
"6,20529525","-0,4900383331","-0,7066594736","3,170062703","3,284631292"
"6,21524825","-0,6651238503","-0,424726323","2,515512519","2,636396294"
"6,22520225","-0,8488887551","-0,1096692073","1,413894167","1,652796469"
"6,23515525","-0,8269165997","0,02681489244","0,144927333","0,8399488277"
"6,24510925","-0,6894436627","0,1125095654","-1,024630403","1,240104201"
"6,25506225","-0,5417429222","0,08868515834","-1,821245708","1,902179376"
"6,26501525","-0,3849127412","-0,005044246763","-2,092199834","2,127318361"
"6,27496925","-0,246710364","-0,1842222302","-2,019836447","2,043169867"
"6,28492225","-0,2359704176","-0,3131466841","-1,760546932","1,803681896"
"6,294876167","-0,1980724933","-0,3939295498","-1,562398242","1,623422763"
"6,304829167","-0,182199861","-0,4436848234","-1,60502269","1,675156962"
"6,314782167","-0,1707865346","-0,4572240512","-1,732469187","1,799908708"
"6,324736167","-0,07018486038","-0,3869857619","-1,831970086","1,873712435"
"6,334689167","-0,03486109972","-0,271178915","-1,885776749","1,905493964"
"6,344643167","-0,1563122639","-0,2135859605","-1,721531385","1,741758536"
"6,354596167","-0,3515327047","-0,1704370904","-1,45375756","1,50533554"
"6,364550167","-0,4462508374","-0,1123336008","-1,180031269","1,266582979"
"6,374503167","-0,4542728153","-0,1004295468","-0,9943599522","1,097816742"
"6,384456167","-0,460662616","-0,1098374975","-0,9241968727","1,038467227"
"6,394410167","-0,4382692053","-0,05039466664","-0,8713105613","0,9766276737"
"6,404363167","-0,313593923","0,01935041003","-0,9959112185","1,04429629"
"6,414317167","-0,1102205267","0,1083190487","-1,315841623","1,324885187"
"6,424270167","-0,02137533735","0,2470229343","-1,449246433","1,470303526"
"6,434223167","0,06248955913","0,319331211","-1,530191778","1,564405397"
"6,444177167","0,1298565001","0,3500239403","-1,526099312","1,571101072"
"6,454130167","0,1970135991","0,3975433118","-1,409722179","1,477894334"
"6,464084167","0,2597615686","0,4412373251","-1,283750934","1,382093669"
"6,474037167","0,3189306036","0,4672628434","-1,193357073","1,320663621"
"6,483990167","0,3703102703","0,5809948424","-1,199532902","1,383316264"
"6,493944167","0,4364931136","0,6116799703","-1,239052479","1,449113408"
"6,503897167","0,3990023382","0,6249200765","-1,192802172","1,404458967"
"6,513851167","0,2237736374","0,7189511248","-1,139674956","1,365951817"
"6,523804167","0,03392777447","0,7404837158","-1,084181955","1,313361237"
"6,533758167","-0,05731184967","0,7060178147","-1,063899134","1,278134253"
"6,543711167","-0,03918445788","0,6628639745","-0,8959671003","1,115204517"
"6,553664167","-0,03239485379","0,666316463","-0,6486573601","0,9304748391"
"6,563618167","-0,07975159954","0,6414019156","-0,358294571","0,7390072629"
"6,573571167","-0,2395364517","0,6770751205","-0,06885564208","0,7214911849"
"6,583525167","-0,3029126314","0,6871361321","0,1734348482","0,7707086174"
"6,593478167","-0,2737769426","0,676865644","0,3958676094","0,8305492631"
"6,603431167","-0,2020369055","0,7012111842","0,5865581757","0,9362513175"
"6,613385167","-0,08095919576","0,7578681457","0,8518662304","1,143063687"
"6,623338167","-0,04576041933","0,8581381001","1,130144579","1,419761171"
"6,633292167","-0,2426009409","0,8858786798","1,370605475","1,649907761"
"6,643245167","-0,3860697956","0,7516601568","1,830652708","2,016266901"
"6,653198167","-0,4812931277","0,6385443082","2,582936178","2,703875221"
"6,663152167","-0,6653378583","0,6802057198","3,334715618","3,46780659"
"6,673105167","-0,7774646504","0,6457267356","3,809796043","3,94156824"
"6,683059167","-0,8897048785","0,5230402375","4,054543533","4,183834261"
"6,693012167","-0,8135525691","0,4207969575","3,980838211","4,084851371"
"6,702966167","-0,8354064645","0,3040063531","3,861776621","3,962782166"
"6,712919167","-0,6755251698","0,09731879152","3,419076322","3,486529521"
"6,722872167","-0,3124246991","-0,1427944149","2,644257098","2,666476147"
"6,732826167","-0,1092070032","-0,3452014492","1,829457538","1,864941042"
"6,742779167","-0,1616041037","-0,6049041437","1,404386594","1,537636698"
"6,752733167","-0,235280501","-0,8609584314","1,448023195","1,700993095"
"6,762686167","-0,1390149026","-0,8687904114","1,583203804","1,811258184"
"6,772639167","-0,1169986556","-1,039974082","1,715040391","2,009128746"
"6,782593167","-0,2006250953","-1,161552605","1,639846367","2,019542273"
"6,792546167","-0,3088887417","-1,031633759","1,483088948","1,83282113"
"6,802500167","-0,2024230411","-0,9487822218","0,967030651","1,369785046"
"6,812453167","-0,06040495366","-0,848952709","0,09173345804","0,8560283219"
"6,822406167","-0,03011122372","-0,7194580784","-0,875947988","1,133936281"
"6,832360167","0,1736114706","-0,6650271519","-1,830296028","1,955092225"
"6,842313167","0,4467162027","-0,638313124","-2,444714432","2,565858076"
"6,852267167","0,6802864844","-0,6726049241","-2,606680552","2,776683378"
"6,862220167","0,8978860103","-0,7132961364","-2,544246322","2,790731089"
"6,872173167","0,9595165403","-0,7430877002","-2,247541058","2,554269392"
"6,882127167","0,9214823028","-0,7336685666","-1,80776963","2,157644604"
"6,892080167","0,8661055161","-0,7828937171","-1,250488463","1,710784245"
"6,902034167","0,8486227068","-0,6547465043","-0,6744622922","1,266393646"
"6,911987167","0,9150639604","-0,4351338552","-0,5052467948","1,132235774"
"6,921940167","0,7755176738","-0,3888665188","-0,6558184451","1,08753973"
"6,931894167","0,5128895442","-0,3012848762","-0,8787862265","1,061175524"
"6,941847167","0,4443087578","-0,1306222295","-1,240050014","1,323705585"
"6,951801167","0,4261733992","-0,01626158182","-1,711508673","1,763845272"
"6,961754167","0,4366021641","0,09958849791","-2,000550576","2,050059005"
"6,971708167","0,3899848719","0,2809724165","-2,166061277","2,21875081"
"6,981661167","0,3380157328","0,3314267978","-2,341471315","2,388846223"
"6,991614167","0,2394199825","0,3434195468","-2,392000029","2,428358098"
"7,001568167","0,2691537684","0,3981919141","-2,351603955","2,400217014"
"7,011521167","0,3083152394","0,4189492739","-2,248835047","2,30821053"
"7,021475167","0,3165184079","0,4216563886","-2,263805673","2,324391133"
"7,031428167","0,3686450564","0,3778013941","-2,226170654","2,287896163"
"7,041381167","0,4564768867","0,458909036","-2,082596952","2,180866505"
"7,051335167","0,4782898516","0,4825413255","-2,043145788","2,153149327"
"7,061288167","0,4353121953","0,369655236","-1,977352332","2,058170048"
"7,071242167","0,3559103689","0,3796206822","-1,782593858","1,856993515"
"7,081195167","0,2777424146","0,3260858414","-1,538292511","1,596814539"
"7,091148167","0,2613532904","0,311302253","-1,309207957","1,370853788"
"7,101102167","0,3032621853","0,27378173","-0,996651476","1,077143701"
"7,111055167","0,334014337","0,3056696302","-0,7811155057","0,9028515566"
"7,121009167","0,3513595175","0,3577071451","-0,6258777773","0,8019544279"
"7,130962167","0,3712539013","0,3645288358","-0,4417805314","0,6825545907"
"7,140915167","0,3170603717","0,4457308738","-0,2061932892","0,5845673303"
"7,150869167","0,216899139","0,4975116229","0,01270073712","0,5428852182"
"7,160822167","0,1521175444","0,5187998002","0,2613290244","0,6004880007"
"7,170776167","0,04739877261","0,5745499316","0,4567184132","0,7354902967"
"7,180729167","-0,006996303163","0,5771982452","0,5523928946","0,7989647505"
"7,190683167","-0,03167498846","0,5971238386","0,6494929272","0,8828370438"
"7,200636167","-0,004054897875","0,6276288722","0,8325499535","1,042628346"
"7,210589167","-0,008425362669","0,617982282","1,250243465","1,394661898"
"7,220543167","-0,09924733115","0,6000713834","1,703017346","1,808370476"
"7,230496167","-0,1350272295","0,5038314763","2,079308478","2,143735584"
"7,240450167","-0,1458174619","0,3464404377","2,376484442","2,406026187"
"7,250403167","-0,2939964133","0,1917655769","2,540255013","2,56439144"
"7,260356167","-0,5534272671","0,01607611544","2,421642489","2,484128122"
"7,270310167","-0,8448406546","-0,1616610409","2,03255648","2,207074052"
"7,280263167","-1,228020245","-0,3852114609","1,410877588","1,909711277"
"7,290217167","-1,414385479","-0,4041291404","0,5718869269","1,578246275"
"7,300170375","-1,232292805","-0,3986120731","-0,1210894042","1,300807359"
"7,310123375","-1,234321935","-0,3504039728","-0,4453847551","1,358197763"
"7,320077375","-1,209072927","-0,4117440059","-0,2618938655","1,303832376"
"7,330030375","-1,223764641","-0,5364775776","0,03018975914","1,336532644"
"7,339984375","-1,182318553","-0,5817645552","0,06979587436","1,319544854"
"7,349937375","-0,8625851268","-0,9539463365","0,2496047723","1,310102766"
"7,359890375","-0,2909829228","-1,597613829","0,5359429228","1,71005141"
"7,369844375","0,1121565581","-1,794382722","1,268844627","2,200535193"
"7,379797375","0,06267749229","-1,520841642","3,019861767","3,381782497"
"7,389751375","-0,2373390863","-1,259906427","4,646343738","4,819979686"
"7,399704375","-0,4035031959","-0,9698859926","5,286909136","5,390259909"
"7,409657375","-0,3810614726","-0,6365039223","4,950435789","5,005712696"
"7,419611375","-0,6622535983","-0,4056974002","4,102585427","4,175449364"
"7,429564375","-0,8810047332","-0,1044372284","2,97023177","3,099895682"
"7,439518375","-0,6650927869","0,154814262","1,664953142","1,799551287"
"7,449471375","-0,5070448502","0,1218772252","0,5461989391","0,7551700598"
"7,459424375","-0,5298386124","0,1400334145","-0,1377229786","0,565071616"
"7,469378375","-0,3856777763","0,1780440987","-0,4804510921","0,6413113909"
"7,479331375","-0,1525239625","0,06227958927","-0,6878997785","0,7073531025"
"7,489285375","0,01611353762","-0,08622755533","-0,7864750636","0,7913519211"
"7,499238375","0,2132555562","-0,09545268919","-0,8352560449","0,8673187468"
"7,509191375","0,3230446315","-0,03911286604","-1,020364274","1,070995286"
"7,519145375","0,4739729984","0,04507624028","-1,275379475","1,361350461"
"7,529098375","0,5579880953","0,1547852818","-1,642629057","1,741705893"
"7,539052375","0,5685024488","0,244987957","-1,974173201","2,068954799"
"7,549005375","0,640591053","0,3779940598","-2,223864512","2,34495411"
"7,558958375","0,7286237352","0,3852907637","-2,428757381","2,564800954"
"7,568912375","0,6524353192","0,293339972","-2,431002127","2,534066204"
"7,578865375","0,5318315628","0,290054787","-2,336460251","2,41371562"
"7,588819375","0,36082203","0,2596812425","-2,307546939","2,349978673"
"7,598772375","0,2560819158","0,3270249043","-2,27462653","2,312238977"
"7,608725375","0,2328896293","0,456866494","-2,408503795","2,462489615"
"7,618679375","0,1425717822","0,4467875022","-2,522174837","2,565406731"
"7,628632375","-0,0005522329733","0,4723455356","-2,502163326","2,546356597"
"7,638586375","-0,1295940698","0,4849932458","-2,443167844","2,494209731"
"7,648539375","-0,1936166226","0,4923075278","-2,315234274","2,374902912"
"7,658492375","-0,1603517032","0,5586573822","-2,034998862","2,116372157"
"7,668446375","-0,2033563663","0,5733123319","-1,660716249","1,768620734"
"7,678399375","-0,3407314356","0,5614226036","-1,32875169","1,482185652"
"7,688353375","-0,3991380667","0,505571096","-1,025695181","1,211182865"
"7,698306375","-0,2955053421","0,5141323334","-0,7635703504","0,9667963299"
"7,708259375","-0,2637283197","0,4022678985","-0,488832491","0,6858055797"
"7,718213375","-0,3255926288","0,3258908368","-0,1474439746","0,4836890769"
"7,728166375","-0,3496910145","0,3488110451","0,2856826776","0,5705852636"
"7,738120375","-0,3194643082","0,3968030908","0,6255345458","0,8067239956"
"7,748073375","-0,1991770689","0,3933280174","0,7112564814","0,8368179112"
"7,758026375","-0,1856282663","0,3804569071","0,9154359895","1,008577395"
"7,767980375","-0,140490685","0,4301664993","1,163659649","1,248553014"
"7,777933375","-0,04868490424","0,4686957767","1,217687922","1,305683663"
"7,787887375","-0,01253526092","0,4401555171","1,34679152","1,416947921"
"7,797840375","-0,09920111988","0,3939316328","1,722490913","1,769745162"
"7,807793375","-0,1303447426","0,3478516266","2,192204179","2,223454444"
"7,817747375","-0,05658727001","0,335718581","2,337972341","2,362630685"
"7,827700375","-0,04205489259","0,2757708431","2,337359553","2,353947292"
"7,837654375","0,01689706452","0,2607197446","2,251829991","2,26693595"
"7,847607375","-0,004469136558","0,3485088171","2,02963755","2,059346244"
"7,857560375","-0,1540169394","0,3419460484","1,720963036","1,761352346"
"7,867514375","-0,08399426613","0,4117785775","1,483528658","1,541905935"
"7,877467375","0,1816987181","0,4129067978","1,141443738","1,227354984"
"7,887421375","0,4470275669","0,1878994345","0,563633582","0,7435204488"
"7,897374375","0,4949905227","-0,06561456699","0,2380600297","0,5531667622"
"7,907327375","0,4301937985","-0,3131829003","0,4455473077","0,6940191905"
"7,917281375","0,3313982927","-0,668505222","1,131739115","1,355565374"
"7,927234375","0,08223980907","-0,9461001771","2,146972457","2,347628519"
"7,937188375","-0,3224578268","-1,104536552","3,14680248","3,350573964"
"7,947141375","-0,4533116427","-1,053391468","3,499097807","3,682229012"
"7,957094375","-0,3563599101","-0,95192817","3,194110547","3,351940008"
"7,967048375","-0,1254917729","-0,7618822592","2,290065519","2,416735989"
"7,977001375","0,09423288692","-0,748214685","1,013280373","1,263108137"
"7,986955375","0,154677894","-0,6407736323","0,01438239634","0,659335235"
"7,996908375","0,300876302","-0,5461215366","-0,5751660454","0,8482872518"
"8,006861375","0,3456951369","-0,6653178316","-0,4305170399","0,8645795894"
"8,016815375","0,2658545501","-0,6739774118","0,3606305337","0,8093074665"
"8,026768375","0,2793055946","-0,556273984","1,178805692","1,333054845"
"8,036722375","0,210079239","-0,4984335461","1,518663992","1,612113398"
"8,046675375","0,07318630926","-0,3835262933","1,296662756","1,354172425"
"8,056628375","0,0682039699","-0,2328815894","0,5580261022","0,6085053384"
"8,066582375","0,0934375925","-0,04593576271","-0,3487238485","0,3639354345"
"8,076535375","0,03948204461","0,2131353959","-1,198983849","1,218420206"
"8,086489375","0,01411992945","0,3660540455","-2,000096247","2,03336665"
"8,096442375","-0,0708634663","0,4854691361","-2,68650674","2,730937637"
"8,106395375","-0,08087978326","0,492744461","-3,173699087","3,21274097"
"8,116349375","0,0690489291","0,399199426","-3,518405313","3,541652705"
"8,126302375","0,1771302519","0,3345872179","-3,621680591","3,641413741"
"8,136255375","0,1575915981","0,3405038327","-3,580755928","3,600359842"
"8,146209375","0,1897779987","0,3242724737","-3,623801376","3,643227242"
"8,156162375","0,2748819932","0,3266894568","-3,507651114","3,533539649"
"8,166116375","0,2059105032","0,3326792349","-3,308337075","3,331391422"
"8,176069375","0,09096498773","0,3316721251","-3,190665953","3,209147901"
"8,186022375","0,08874947771","0,3281266659","-3,024849442","3,043888586"
"8,195976375","0,03666259032","0,2955008836","-2,872889662","2,888279753"
"8,205929375","0,04315669075","0,1710442141","-2,64624866","2,652121904"
"8,215883375","0,1350646151","0,1073099289","-2,24128863","2,247917391"
"8,225836375","0,256821077","0,1101306257","-1,806273912","1,827761272"
"8,235789375","0,3113666455","0,1030090825","-1,441864323","1,478692931"
"8,245743375","0,2290922282","0,1006721697","-1,032551626","1,062441055"
"8,255696375","0,2238720533","0,221644118","-0,7045163959","0,7717435866"
"8,265650375","0,3367232789","0,3006846596","-0,5110671133","0,6818969316"
"8,275603375","0,4899504056","0,3506537951","-0,3330749452","0,6884391063"
"8,285556375","0,6251910219","0,3884645227","-0,2441890812","0,7754977799"
"8,2955105","0,6385394843","0,4370830245","-0,2230221605","0,8053031277"
"8,3054635","0,6279054455","0,3877714084","-0,165660975","0,7563567097"
"8,3154175","0,656106055","0,3821124731","0,03737364829","0,7601854294"
"8,3253705","0,5876200666","0,4301314891","0,5314323807","0,9015158434"
"8,3353235","0,4534792019","0,4725228524","1,114134318","1,292368566"
"8,3452775","0,3106910728","0,4634564522","1,564234852","1,660768346"
"8,3552305","0,1602402406","0,5146168848","2,067023478","2,136139867"
"8,3651845","-0,029784072","0,6195349371","2,340923431","2,421700464"
"8,3751375","-0,1808454997","0,5682262044","2,391387826","2,464613935"
"8,3850905","-0,3716063787","0,4229076196","2,481265377","2,544330959"
"8,3950445","-0,6289228611","0,2394957405","2,431420788","2,522837534"
"8,4049975","-0,8332882375","-0,03857547037","2,142943726","2,299579345"
"8,4149515","-1,045221665","-0,3276841047","1,982441749","2,264937193"
"8,4249045","-1,155276204","-0,3773926006","1,784643307","2,159175773"
"8,4348575","-1,058710534","-0,4308042844","1,536187513","1,914766931"
"8,4448115","-1,062064424","-0,3745300962","1,304660577","1,723482769"
"8,4547645","-1,080834571","-0,2847895154","0,9830713177","1,488535405"
"8,4647175","-1,183151197","-0,3033428038","0,6437661642","1,380687686"
"8,4746715","-1,288087229","-0,2944030689","0,5674874818","1,43801388"
"8,4846245","-1,375497256","-0,3814548075","0,717756831","1,597709404"
"8,4945785","-1,393470135","-0,5905956781","1,186878358","1,923341496"
"8,5045315","-1,292505385","-0,8432262383","2,056193265","2,570900893"
"8,5144845","-1,180717001","-0,7935341147","3,25892167","3,555890814"
"8,5244385","-0,987483919","-0,6681881567","4,058186349","4,229713506"
"8,5343915","-0,734329302","-0,6013145015","3,86875001","3,983471513"
"8,5443455","-0,5999522829","-0,5027446251","2,910838092","3,014245063"
"8,5542985","-0,4394785557","-0,2575490188","1,405789341","1,495231276"
"8,5642515","-0,2214238241","-0,06663450412","-0,1709766787","0,2875790182"
"8,5742055","0,005829162374","-0,07849580035","-1,475268297","1,477366616"
"8,5841585","0,05068987794","-0,1611429045","-1,979171986","1,986368105"
"8,5941125","-0,04854643486","-0,1742009065","-1,722112598","1,731581507"
"8,6040655","-0,1565359564","-0,3340436827","-1,27120047","1,323646223"
"8,6140185","-0,2417119814","-0,5618431646","-0,5989180201","0,8560345895"
"8,6239725","-0,4020060895","-0,602964805","0,05238637447","0,7265808862"
"8,6339255","-0,5454576583","-0,6370080254","0,09587562561","0,8440944361"
"8,6438795","-0,5111948019","-0,7556165291","-0,2830748194","0,9552004072"
"8,6538325","-0,4670918123","-0,6876336571","-0,638253994","1,048037675"
"8,6637855","-0,4193404526","-0,5303450178","-0,9836057532","1,193562956"
"8,6737395","-0,2875223579","-0,3355956068","-1,254942287","1,330478734"
"8,6836925","-0,1644416112","-0,1941141842","-1,407525964","1,430332374"
"8,6936455","-0,01486486472","-0,05456709355","-1,524254515","1,525303366"
"8,7035995","0,1757950037","0,05270409755","-1,770299503","1,779787047"
"8,7135525","0,3174172711","0,06328865424","-1,962312124","1,988825797"
"8,7235065","0,3542192079","0,110161616","-2,131680234","2,16371612"
"8,7334595","0,3715519996","0,211058538","-2,390707794","2,428596375"
"8,7434125","0,2824938986","0,2416036617","-2,474583764","2,502346886"
"8,7533665","0,2297930535","0,2547314648","-2,495775243","2,519243345"
"8,7633195","0,3268413017","0,2679786973","-2,385444716","2,422598669"
"8,7732735","0,318690612","0,2724176842","-2,229497135","2,26857501"
"8,7832265","0,2559878122","0,246962781","-2,116209086","2,145894049"
"8,7931795","0,2764338443","0,269184247","-1,944945894","1,982849051"
"8,8031335","0,2163658364","0,3707549145","-1,712844177","1,765816682"
"8,8130865","0,1271198205","0,3458174899","-1,591994509","1,634073346"
"8,8230405","0,1444450839","0,3082638936","-1,553534448","1,590396268"
"8,8329935","0,2102985827","0,3180376607","-1,48365028","1,531858871"
"8,8429465","0,2583334593","0,3349881542","-1,346178732","1,411081294"
"8,8529005","0,3290694929","0,423309031","-1,107802368","1,230732852"
"8,8628535","0,3643621902","0,4967292289","-0,947315594","1,130002906"
"8,8728065","0,2452405933","0,4566358944","-0,8017947686","0,9547429704"
"8,8827605","0,1170735365","0,4313765806","-0,396487999","0,5974903351"
"8,8927135","0,0121741588","0,4879967777","-0,03493302047","0,4893969566"
"8,9026675","0,04470287729","0,4789417065","0,2454649436","0,540033836"
"8,9126205","0,08717445709","0,5392767859","0,6332633954","0,8363261121"
"8,9225735","0,1376330046","0,5775574835","1,066046231","1,220233608"
"8,9325275","0,182895168","0,556955477","1,401716171","1,519361139"
"8,9424805","0,1304257265","0,5431536361","1,539161991","1,637390112"
"8,9524345","-0,0186796613","0,5573220243","1,577593986","1,673248204"
"8,9623875","-0,2476838889","0,5628006461","1,76929612","1,873099207"
"8,9723405","-0,3992512834","0,6528953489","2,051466376","2,189563476"
"8,9822945","-0,3853661563","0,7800943626","2,213275205","2,378159251"
"8,9922475","-0,3269561629","0,7198942076","2,069156542","2,215074897"
"9,0022015","-0,363953616","0,6422626989","1,906129153","2,044087072"
"9,0121545","-0,412951931","0,5772598603","1,798978341","1,933928984"
"9,0221075","-0,1997997608","0,4685364401","1,650260843","1,72708054"
"9,0320615","0,08011675816","0,3670047297","1,478836852","1,525801298"
"9,0420145","0,1709561038","0,1764812475","1,293694709","1,316821028"
"9,0519675","0,2287880999","-0,1867270312","1,042458563","1,083480888"
"9,0619215","0,3792802646","-0,5357602704","1,071281244","1,256398062"
"9,0718745","0,382890774","-0,9572952562","1,742797124","2,024934904"
"9,0818285","0,05654253881","-1,12808709","2,76578212","2,987528791"
"9,0917815","-0,1221299528","-1,245473891","3,568878479","3,781932646"
"9,1017345","-0,3278372287","-1,269210663","4,006096428","4,215113468"
"9,1116885","-0,4334919936","-1,107996861","3,533966509","3,728872703"
"9,1216415","-0,1647057592","-0,8943909833","2,364648508","2,533500698"
"9,1315955","0,03421852726","-0,6116170396","0,749765659","0,9681915379"
"9,1415485","0,1853010049","-0,4156967236","-0,612549634","0,7631233731"
"9,1515015","0,3889446888","-0,3532556599","-1,575312402","1,660625393"
"9,1614555","0,5898743875","-0,3698464765","-1,968456963","2,087956184"
"9,1714085","0,6891615345","-0,3128036353","-1,525628611","1,703036228"
"9,1813615","0,775303081","-0,2567865419","-0,8180897892","1,155986634"
"9,1913155","0,7133466417","-0,3228097196","-0,2561133081","0,8238103986"
"9,2012685","0,5135204953","-0,2403557928","0,05162974477","0,5693327997"
"9,2112225","0,4864557806","-0,1402652383","-0,1509037721","0,5282854456"
"9,2211755","0,4601111505","-0,08377503209","-0,6496578187","0,8004847332"
"9,2311285","0,2555233606","-0,01778953236","-1,094701096","1,124268271"
"9,2410825","0,1720788789","0,1841583493","-1,480340171","1,501643254"
"9,2510355","0,1576043889","0,2883211971","-1,894694923","1,922976106"
"9,2609895","0,1101333666","0,3034392098","-2,224167398","2,247470874"
"9,2709425","0,06655859996","0,3689297061","-2,359788303","2,389380675"
"9,2808955","0,1454837687","0,4221135677","-2,453580565","2,493873089"
"9,2908495","0,1385278113","0,3020787454","-2,42273124","2,445417794"
"9,30080275","0,08877641145","0,2825391414","-2,210530522","2,230281329"
"9,31075575","0,09354295202","0,2895544115","-2,25553771","2,275970651"
"9,32070975","0,1787277843","0,1911582705","-2,518200485","2,531761992"
"9,33066275","0,1725972345","0,1761052716","-2,609283147","2,62090851"
"9,34061675","0,1511382089","0,2444810765","-2,515653437","2,532020137"
"9,35056975","0,1295155709","0,2356043454","-2,426815521","2,441662807"
"9,36052275","0,03364524432","0,2039412341","-2,17483444","2,184634722"
"9,37047675","-0,04620323628","0,1959668013","-1,797950401","1,809188594"
"9,38042975","-0,04494279586","0,1757784122","-1,561681958","1,57218588"
"9,39038275","-0,07057567365","0,1550884782","-1,349547898","1,360262067"
"9,40033675","-0,1070727147","0,1987774848","-0,971451146","0,9973436638"
"9,41028975","-0,1492006975","0,2877626784","-0,558045398","0,645354843"
"9,42024375","-0,04728413064","0,4327729688","-0,4687116373","0,639702142"
"9,43019675","-0,0003165170923","0,5419765185","-0,4799458927","0,7239383307"
"9,44014975","-0,0604925888","0,6126871897","-0,4289991027","0,7503900158"
"9,45010375","-0,09756302241","0,6652420371","-0,2688473743","0,7241163042"
"9,46005675","-0,1194353","0,7834913025","0,06952339411","0,7955858937"
"9,47001075","-0,1724785726","0,7725720658","0,5141790015","0,9439261096"
"9,47996375","-0,1940535193","0,6752458191","0,9081936282","1,148228789"
"9,48991675","-0,2612475289","0,6751605959","1,339611724","1,522711947"
"9,49987075","-0,2784101301","0,6173100715","1,725530881","1,853656048"
"9,50982375","-0,1918398731","0,6297351124","2,028427176","2,132577234"
"9,51977675","-0,2025202145","0,6279509807","2,183567256","2,28107493"
"9,52973075","-0,1639263985","0,5842956687","2,16386097","2,247346789"
"9,53968375","-0,06296139289","0,5622971278","2,162965761","2,23574665"
"9,54963775","-0,01306468975","0,5408000587","2,177226536","2,243423896"
"9,55959075","0,01778361205","0,4385925563","2,031022171","2,077915"
"9,56954375","-0,02067250203","0,347052568","1,678752571","1,714375406"
"9,57949775","-0,2065375074","0,184181592","1,478246868","1,503926329"
"9,58945075","-0,4451228364","0,1405867986","1,115675644","1,209392876"
"9,59940475","-0,722163512","-0,1140111304","0,792749126","1,0784108"
"9,60935775","-1,034540849","-0,5212749631","0,8842247218","1,457345434"
"9,61931075","-1,209147187","-0,8009059187","1,375677935","1,998993994"
"9,62926475","-1,173284313","-0,9927366921","1,819683917","2,381884081"
"9,63921775","-0,9578565158","-1,196407419","1,794328635","2,359765893"
"9,64917075","-0,8574867202","-1,37173925","1,867774342","2,470937684"
"9,65912475","-0,7369134059","-1,348821089","2,208175263","2,690427046"
"9,66907775","-0,5781885443","-1,170280306","2,474143469","2,797363739"
"9,67903175","-0,4236873458","-1,018996026","2,337939012","2,585309013"
"9,68898475","-0,2646250268","-0,8215993611","1,740242475","1,942548786"
"9,69893775","-0,1965226523","-0,5074902253","0,8031425518","0,9701574306"
"9,70889175","-0,1199966327","-0,2440656319","-0,1130032897","0,2945114055"
"9,71884475","-0,01094065212","-0,07301337786","-0,659197551","0,6633189749"
"9,72879775","0,1899598105","0,01383166172","-0,8861075252","0,9063457347"
"9,73875175","0,2982272941","-0,0004675579816","-0,8777518541","0,9270318521"
"9,74870475","0,1733782033","-0,1431665171","-0,7637872821","0,7961957456"
"9,75865875","-0,06579849847","-0,2451556259","-0,4051623434","0,4781079876"
"9,76861175","-0,2844137587","-0,2676522765","-0,09263042092","0,4013842575"
"9,77856475","-0,4056513899","-0,3409891516","0,05441945136","0,5327176816"
"9,78851875","-0,632351376","-0,3422671337","0,04028205335","0,7201650487"
"9,79847175","-0,7936671388","-0,3818407238","-0,1723215383","0,8974433565"
"9,80842575","-0,8360912465","-0,3740984255","-0,4139051002","1,005144585"
"9,81837875","-0,8620209436","-0,27265742","-0,6173946369","1,094805149"
"9,82833175","-0,9209149767","-0,2866604052","-0,8131149781","1,261512802"
"9,83828575","-0,9500008547","-0,2541683049","-0,9439879435","1,363164109"
"9,84823875","-0,8655132663","-0,1576601567","-1,1746109","1,467542403"
"9,85819175","-0,7796508513","-0,208709273","-1,588682646","1,781944881"
"9,86814575","-0,6804446516","-0,1738961204","-1,981427257","2,102212825"
"9,87809875","-0,5474139174","-0,1012742136","-2,265432953","2,332831955"
"9,88805275","-0,3703280678","-0,06659613177","-2,506653988","2,534737094"
"9,89800575","-0,2495158216","-0,03714721486","-2,589913076","2,602169826"
"9,90795875","-0,2526134571","0,01953379333","-2,519404426","2,532112515"
"9,91791275","-0,2280941085","0,07709575765","-2,340236383","2,352589426"
"9,92786575","-0,09976884797","0,0927647607","-2,157569366","2,161866021"
"9,93781875","0,02411691405","0,1143054646","-1,97971987","1,983163667"
"9,94777275","0,09976300076","0,1270531256","-1,749792148","1,757232971"
"9,95772575","0,1321312132","0,137163327","-1,566409432","1,577945165"
"9,96767975","0,1969997851","0,1623790059","-1,486379761","1,508144771"
"9,97763275","0,2067367148","0,1848631581","-1,292693666","1,322108683"
"9,98758575","0,08724228479","0,3248061783","-1,016309815","1,070511985"
"9,99753975","0,154200213","0,4001044288","-0,8309501553","0,9350611852"
"10,00749275","0,1986379556","0,3852194642","-0,6463284141","0,7781975918"
"10,01744575","0,2319271776","0,4415999255","-0,4834881359","0,6946664578"
"10,02739975","0,2268274554","0,3696375847","-0,5174949574","0,6751915799"
"10,03735275","0,2029807558","0,2341171061","-0,4027100211","0,5081214104"
"10,04730675","0,2166889682","0,1639891829","-0,009606975317","0,2719170002"
"10,05725975","0,1915142928","0,247635357","0,536171549","0,6208711012"
"10,06721275","0,06501405794","0,2936032429","1,159115193","1,197488089"
"10,07716675","-0,08969672665","0,2716579116","1,704582646","1,728422842"
"10,08711975","-0,1062453702","0,2699971562","2,202339157","2,221369917"
"10,09707275","-0,07797799286","0,3714028591","2,361692156","2,391988815"
"10,10702675","-0,01700264331","0,3764810928","2,226734911","2,258401086"
"10,11697975","0,04625377815","0,3593977945","2,170327991","2,200370372"
"10,12693375","-0,04962729268","0,3883758643","2,086689418","2,123104191"
"10,13688675","-0,05744933233","0,4489370117","1,954188003","2,005915157"
"10,14683975","0,04631415065","0,4697125344","1,753816786","1,8162181"
"10,15679375","0,1594472485","0,4330029105","1,38904467","1,463680307"
"10,16674675","0,3620313438","0,3637923425","1,005135201","1,128586875"
"10,17669975","0,562579731","0,2197707432","0,7619220203","0,9722758345"
"10,18665375","0,7395075962","0,02872378908","0,6465202028","0,9826926852"
"10,19660675","0,7274830896","-0,2843046351","0,9781812912","1,251758527"
"10,20656075","0,4598207266","-0,5416872275","1,612846849","1,76242308"
"10,21651375","0,1186891953","-0,6736807387","2,256351643","2,357764958"
"10,22646675","-0,2092642103","-0,8311203823","2,533788577","2,674815349"
"10,23642075","-0,3540952104","-0,9001702981","2,166384044","2,372532362"
"10,24637375","-0,4942513981","-0,8255678663","1,627670125","1,8908085"
"10,25632675","-0,5941745761","-0,6306753447","1,062716242","1,371189494"
"10,26628075","-0,4935472837","-0,4445624173","0,3619648683","0,7564676002"
"10,27623375","-0,4275535248","-0,3630787629","-0,4441381288","0,7154627049"
"10,28618775","-0,2609259686","-0,4557794966","-0,9216854936","1,060811698"
"10,29614063","-0,02222537633","-0,5410615023","-0,9564588851","1,099115606"
"10,30609363","0,1775742383","-0,5559694172","-0,7533318758","0,9529656437"
"10,31604763","0,3369424033","-0,527389835","-0,5157156497","0,8109456533"
"10,32600063","0,4628177901","-0,5261361189","-0,2432511878","0,7417483824"
"10,33595363","0,6310642576","-0,524303163","-0,1042552704","0,8270459875"
"10,34590763","0,7922190759","-0,4699567287","-0,2389786273","0,9516202895"
"10,35586062","0,7996942294","-0,4158447678","-0,4809925443","1,021661176"
"10,36581463","0,6182222372","-0,3127267809","-0,8780430454","1,118461606"
"10,37576762","0,5293225591","-0,2216827096","-1,311752665","1,431789317"
"10,38572063","0,4552391408","-0,07736502193","-1,759000928","1,818601739"
"10,39567462","0,3147633661","0,01879762888","-2,12946297","2,152682482"
"10,40562763","0,1999617653","0,0713551075","-2,371269311","2,380755007"
"10,41558062","0,139876837","0,1186584243","-2,497736399","2,504462511"
"10,42553463","0,1320324683","0,1975803405","-2,452693543","2,464178601"
"10,43548762","0,1623771056","0,3003566308","-2,522455503","2,545459133"
"10,44544163","0,1752892195","0,3074884797","-2,69701711","2,720142784"
"10,45539462","0,1231650927","0,2468076836","-2,816725987","2,830199455"
"10,46534763","0,1456352115","0,1437095042","-2,767158555","2,774712328"
"10,47530162","0,2775013266","0,1454869846","-2,429779474","2,449898313"
"10,48525463","0,3698579151","0,2941514924","-1,874592195","1,933239736"
"10,49520762","0,3400143111","0,3985572555","-1,385918164","1,48162977"
"10,50516163","0,2714559269","0,4547567455","-1,100016215","1,220871694"
"10,51511462","0,3372016907","0,4369094353","-1,107903525","1,237758076"
"10,52506863","0,3525946321","0,3127801368","-0,9705465817","1,078941637"
"10,53502162","0,4026378811","0,327563579","-0,7623055977","0,9222391153"
"10,54497463","0,4442036176","0,2752252248","-0,4518079215","0,6907938739"
"10,55492863","0,324339205","0,2413748894","-0,01427071452","0,404550875"
"10,56488163","0,2423895458","0,3165732986","0,3751462466","0,5474541548"
"10,57483463","0,1680049958","0,3229002783","0,5622173864","0,6697601495"
"10,58478863","0,006395995114","0,3636368796","0,6349403769","0,7317253386"
"10,59474163","-0,1161750022","0,4225535707","0,6589864665","0,7913983285"
"10,60469563","-0,2286145107","0,3930309789","0,6699441487","0,8096685169"
"10,61464863","-0,3335369483","0,4339906514","0,6843674755","0,8763296315"
"10,62460163","-0,4184002934","0,4619325947","0,6008189499","0,8656927505"
"10,63455563","-0,3907178204","0,4304509664","0,5307131732","0,7871498725"
"10,64450863","-0,3941904452","0,4148551266","0,6307619566","0,8516757182"
"10,65446163","-0,4015220131","0,3927063853","0,9136280304","1,072452521"
"10,66441562","-0,2977364752","0,3709496999","1,353863143","1,434989929"
"10,67436863","-0,1658049261","0,3135171052","1,665422089","1,702766861"
"10,68432162","-0,1102848826","0,2439500763","1,730199298","1,750789538"
"10,69427563","-0,01532251898","0,1545351854","1,773512548","1,780298475"
"10,70422862","-0,006655556671","0,1670579479","1,928280745","1,93551525"
"10,71418263","-0,04072794009","0,1541591363","1,797161027","1,804220485"
"10,72413562","-0,0644653333","0,01101615429","1,503137296","1,504559359"
"10,73408863","-0,2392619249","-0,09910760097","1,333593185","1,3585063"
"10,74404262","-0,4335638412","-0,2183069658","1,542073905","1,616671724"
"10,75399563","-0,5857152995","-0,2788866781","2,284784313","2,375095693"
"10,76394862","-0,6701525288","-0,444645594","3,10922067","3,211552163"
"10,77390263","-0,7204347096","-0,5857717252","3,668187005","3,783880361"
"10,78385562","-0,7927378701","-0,556534916","3,793551893","3,915252279"
"10,79380963","-0,7713779913","-0,6412354892","3,471701848","3,613712866"
"10,80376262","-0,6397550473","-0,6521317025","2,866445446","3,008499921"
"10,81371563","-0,6037778603","-0,4796870072","1,992428793","2,136450286"
"10,82366962","-0,4752195883","-0,3041649223","1,136465419","1,268819769"
"10,83362263","-0,406967525","-0,1840232787","0,4954673266","0,6670644686"
"10,84357562","-0,5052014789","-0,1566276115","0,1275991094","0,5440976711"
"10,85352963","-0,2465362997","-0,03591886103","-0,1399308872","0,2857463296"
"10,86348262","-0,6247492647","-0,3810033294","-0,01467768073","0,7319088844"
"10,87343563","-0,8537230868","-0,4840962098","0,04203446388","0,9823233406"
"10,88338962","-0,785168357","-0,5277909175","0,1305367506","0,9550353107"
"10,89334263","-0,7767393033","-0,5927194234","-0,05787749469","0,9787696688"
"10,90329663","-0,6495066682","-0,5690276384","-0,487656616","0,9916956894"
"10,91324963","-0,4482538377","-0,4873308895","-0,8785137463","1,100095133"
"10,92320263","-0,2511618859","-0,2351119367","-1,1522453","1,20250952"
"10,93315663","-0,06870734207","-0,09614960421","-1,464413525","1,46917406"
"10,94310963","0,09269466721","-0,05518426716","-1,730126207","1,733486169"
"10,95306263","0,1853845835","0,03663412169","-1,84613672","1,855782932"
"10,96301663","0,2117442703","0,080915232","-2,050675832","2,063166081"
"10,97296963","0,202348818","0,06363203198","-2,302483835","2,312233961"
"10,98292363","0,2382001437","-0,01094240628","-2,495116847","2,506485013"
"10,99287662","0,1957742087","-0,002762370855","-2,47841369","2,486135473"
"11,00282963","0,05744962469","-0,007300541103","-2,419353304","2,420046315"
"11,01278362","-0,02696677387","-0,08696424969","-2,462316306","2,463999102"
"11,02273663","-0,05355252855","-0,1520724113","-2,41450947","2,419886335"
"11,03268962","-0,0698126851","-0,1069562455","-2,292348856","2,295904338"
"11,04264363","-0,001143349931","0,00776656419","-2,264975701","2,264989305"
"11,05259662","0,08192680031","0,1652287196","-2,454450046","2,461369042"
"11,06254963","0,1452913222","0,2442659721","-2,55993791","2,575666426"
"11,07250362","0,1290074113","0,3064443862","-2,535101861","2,556812962"
"11,08245663","0,1437994782","0,4804576702","-2,31036939","2,364175244"
"11,09241062","0,2082053526","0,5458527839","-2,180056588","2,256978391"
"11,10236363","0,1900145916","0,4075042263","-1,964510093","2,015307705"
"11,11231662","0,2391816719","0,3721120533","-1,663832815","1,721631462"
"11,12227063","0,3245783927","0,4906983376","-1,444979135","1,56016047"
"11,13222362","0,3181327511","0,4731482852","-1,142162361","1,276562809"
"11,14217663","0,2200402998","0,4932184875","-0,7080966461","0,8905521153"
"11,15213062","0,1981383111","0,5234241803","-0,3039137113","0,63686357"
"11,16208363","0,2149723718","0,4000953656","0,07193127751","0,4598516401"
"11,17203662","0,2369782583","0,3794992062","0,3556130379","0,5715233812"
"11,18199063","0,2092063228","0,4083427902","0,6122929412","0,7651233663"
"11,19194362","0,1002702102","0,4025328505","0,7889115983","0,8913295242"
"11,20189763","0,1111817358","0,2632195754","0,9657799315","1,007162747"
"11,21185062","-0,03138098314","0,2774549143","1,278076211","1,308221998"
"11,22180363","-0,06383485727","0,3466806851","1,57684028","1,615762252"
"11,23175763","-0,1899757807","0,1787792033","1,804893385","1,823648247"
"11,24171063","-0,5080483786","0,116706039","1,989774157","2,056923589"
"11,25166363","-0,7929615261","0,02965342328","2,09981057","2,244743134"
"11,26161763","-0,9523377675","-0,1172835977","2,133313361","2,339172624"
"11,27157063","-0,9168508695","-0,2078411807","2,070345281","2,273794858"
"11,28152363","-0,6682870477","-0,2695276248","1,890173855","2,022871702"
"11,29147763","-0,3004088172","-0,2826985511","1,598247521","1,650623842"
"11,30143075","0,05351232894","-0,2682896961","1,298448495","1,326955698"
"11,31138475","-0,001389554255","-0,2984373553","1,136575347","1,17510438"
"11,32133775","0,01655368678","-0,2540960187","1,127028013","1,155435395"
"11,33129075","0,2727373076","-0,4858881987","1,314837656","1,428030477"
"11,34124475","0,5831868904","-1,04307698","1,343445159","1,798043778"
"11,35119775","0,3311216097","-1,078625566","2,056639407","2,345813352"
"11,36115075","-0,380047602","-0,7320502035","3,062246479","3,171385687"
"11,37110475","-0,5126344594","-0,6514784224","3,440684123","3,53914191"
"11,38105775","-0,3623684724","-0,4754011078","3,542834396","3,592908666"
"11,39101075","-0,3230570568","-0,2651263525","2,937477422","2,967057709"
"11,40096475","0,02351289667","-0,2534894797","1,945907176","1,962489366"
"11,41091775","0,3822508328","-0,2837429004","1,276312691","1,362204029"
"11,42087175","0,4899449969","-0,2300662647","0,8826032889","1,035357499"
"11,43082475","0,6086581658","-0,1827361969","0,5911055553","0,8679072865"
"11,44077775","0,6864595362","-0,1974441735","0,2830040681","0,7683112644"
"11,45073175","0,706103111","-0,09838108443","0,04167018235","0,7141406341"
"11,46068475","0,6495083492","-0,01550334413","-0,257990849","0,6990427223"
"11,47063775","0,5090306377","-0,004586153962","-0,6125291687","0,7964453562"
"11,48059175","0,3877476541","0,05535588294","-0,9780549914","1,053567313"
"11,49054475","0,4039868703","0,1617250314","-1,339404148","1,408319512"
"11,50049875","0,4398855219","0,2603623335","-1,589214742","1,669398489"
"11,51045175","0,381045539","0,3418812905","-1,80639495","1,877535947"
"11,52040475","0,3508170055","0,3645915472","-2,112939323","2,172673963"
"11,53035875","0,3138699116","0,3824741234","-2,4462312","2,495765987"
"11,54031175","0,3710248366","0,3569563261","-2,703953077","2,752533286"
"11,55026475","0,3604596854","0,3499498999","-2,875753044","2,919306713"
"11,56021875","0,4145423371","0,2852334653","-3,131007396","3,171184446"
"11,57017175","0,4764868992","0,1576600105","-3,342063814","3,379539463"
"11,58012475","0,4568136863","0,17065764","-3,479852867","3,513855254"
"11,59007875","0,5334067661","0,132637582","-3,503904219","3,546753485"
"11,60003175","0,5996816665","0,1156076396","-3,389623897","3,444202867"
"11,60998475","0,5672670053","0,2004267651","-3,15206205","3,20896524"
"11,61993875","0,4001667381","0,2387933437","-2,816773349","2,855060031"
"11,62989175","0,3289666549","0,2967219284","-2,584968671","2,622656285"
"11,63984575","0,3890840352","0,3521030275","-2,365078279","2,422593279"
"11,64979875","0,3777239185","0,2749585918","-2,145111288","2,195399742"
"11,65975175","0,3491970344","0,1994877753","-1,809560632","1,853710771"
"11,66970575","0,3053971682","0,2675142092","-1,362421128","1,421626748"
"11,67965875","0,2733013447","0,3386623252","-0,9791080749","1,071465547"
"11,68961175","0,2245768621","0,3309220004","-0,6152598184","0,7338179485"
"11,69956575","0,1370446468","0,3555367318","-0,1926435363","0,4269650278"
"11,70951875","0,1552239691","0,4626213967","0,2429921561","0,5451222113"
"11,71947175","0,1688429018","0,5284028652","0,6467377192","0,8520488195"
"11,72942575","0,2158772102","0,6365686803","1,053233228","1,249449033"
"11,73937875","0,049128781","0,7069923994","1,419518604","1,586595398"
"11,74933175","-0,2092032713","0,6831646302","1,695025372","1,839453977"
"11,75928575","-0,3910272843","0,6311944313","1,787555221","1,93562972"
"11,76923875","-0,4471592024","0,5914222551","1,717050079","1,870292119"
"11,77919275","-0,4980542079","0,4966283644","1,70412247","1,843564786"
"11,78914575","-0,5879806571","0,4553048488","1,850717429","1,99453723"
"11,79909875","-0,6812013544","0,461344511","2,125929497","2,279572388"
"11,80905275","-0,5890168568","0,4360724795","2,223971516","2,341612558"
"11,81900575","-0,5176693872","0,3593330365","2,250327841","2,336894781"
"11,82895875","-0,5616582464","0,2823317114","2,232014946","2,318849262"
"11,83891275","-0,4966963748","0,2508136111","2,26007515","2,327564057"
"11,84886575","-0,4753775727","0,2511412013","2,252810569","2,316076682"
"11,85881875","-0,4719163865","0,1888473047","2,017013996","2,080075441"
"11,86877275","-0,5322808117","0,006044705361","1,604653146","1,690642221"
"11,87872575","-0,5070088533","-0,09643213436","1,152996082","1,263232797"
"11,88867975","-0,5265864642","-0,1795163179","0,8606528413","1,024813508"
"11,89863275","-0,474745708","-0,3174473112","0,8597845298","1,032175237"
"11,90858575","-0,3119936132","-0,4773560878","1,399346879","1,51108588"
"11,91853975","-0,2166621075","-0,6153523506","2,343664021","2,432768387"
"11,92849275","-0,005869800523","-0,701079768","3,283877587","3,357886136"
"11,93844575","0,122507756","-0,7857893313","3,912899997","3,992901127"
"11,94839975","0,1163329867","-0,7388630868","3,846015451","3,918071831"
"11,95835275","0,2282614119","-0,5876912199","3,090211372","3,153869143"
"11,96830575","0,2724333255","-0,5464303426","1,88706723","1,983388204"
"11,97825975","0,2421846922","-0,4754240216","0,4771111625","0,7157628705"
"11,98821275","0,1514437625","-0,3754612653","-0,5880644184","0,7139510734"
"11,99816575","-0,1447148233","-0,3098131134","-1,10357717","1,155339394"
"12,00811975","-0,5090927644","-0,3035288914","-1,114709099","1,26249024"
"12,01807275","-0,7279839036","-0,3448983076","-0,7890694731","1,127628503"
"12,02802675","-0,8942496268","-0,393878679","-0,4325729209","1,068616929"
"12,03797975","-1,013388912","-0,4505447768","-0,3037312782","1,149869719"
"12,04793275","-1,025124858","-0,5734670638","-0,4008897829","1,241151911"
"12,05788675","-0,8095298309","-0,5436882178","-0,645996877","1,169721074"
"12,06783975","-0,6406667744","-0,4262761275","-1,045409068","1,298092976"
"12,07779275","-0,4324508237","-0,3086907403","-1,552010663","1,640439205"
"12,08774675","-0,2298558746","-0,2700494157","-2,01692161","2,047860638"
"12,09769975","-0,08343603976","-0,2559748022","-2,289780759","2,305554293"
"12,10765275","0,1198486616","-0,1821760701","-2,491630737","2,501154843"
"12,11760675","0,2755635593","-0,1288346992","-2,647715142","2,665132103"
"12,12755975","0,2759665421","-0,1022028977","-2,595740996","2,612369477"
"12,13751275","0,1909025644","-0,1162685942","-2,311744071","2,322525096"
"12,14746675","0,09122964732","-0,02254927553","-1,998383598","2,000591993"
"12,15741975","-0,0412836083","0,002766098455","-1,944585121","1,945025264"
"12,16737375","-0,09760428183","-0,08509504102","-2,014650552","2,018807719"
"12,17732675","-0,1481794813","-0,03395434275","-2,046279895","2,051918972"
"12,18727975","-0,1577295924","0,04245707139","-2,168696033","2,174838778"
"12,19723375","-0,1457967409","0,06160180561","-2,341803437","2,347146099"
"12,20718675","-0,1854883716","0,08353931621","-2,395722367","2,404344071"
"12,21713975","-0,1527184555","0,1580239266","-2,291716188","2,302228827"
"12,22709375","-0,1270252052","0,1917655769","-2,205865613","2,217826085"
"12,23704675","-0,09106007807","0,1678012021","-2,080077386","2,088820508"
"12,24699975","-0,1815382851","0,1909664087","-1,855118043","1,87373618"
"12,25695375","-0,1733824425","0,1716090551","-1,578922473","1,59765682"
"12,26690675","-0,1592962077","0,1241610928","-1,309535986","1,325019153"
"12,27685975","-0,2286664778","0,1944836551","-1,026709673","1,069693883"
"12,28681375","-0,2179874155","0,2146640043","-0,6601693583","0,72761441"
"12,29676675","-0,05347724564","0,2369405803","-0,2872853994","0,3762094565"
"12,30672042","0,0720946341","0,3130776139","0,08535297632","0,332415943"
"12,31667342","0,1342546295","0,4147057302","0,3040318251","0,5314513138"
"12,32662642","0,2381927615","0,4832710581","0,3945519859","0,6678008511"
"12,33658042","0,324329484","0,5315636507","0,6542853051","0,9032379473"
"12,34653342","0,3598760967","0,5760026358","0,8687184906","1,102706515"
"12,35648642","0,3503187496","0,5876403491","0,8522579938","1,09288064"
"12,36644042","0,2741461942","0,553550351","0,9344803709","1,120190917"
"12,37639342","0,1616665227","0,5111219309","1,129694343","1,250436325"
"12,38634642","0,1275445841","0,5118678895","1,401595134","1,497579806"
"12,39630042","0,08711934708","0,5701541045","1,56133171","1,664458528"
"12,40625342","0,03653142996","0,5603926165","1,924197049","2,004472178"
"12,41620642","-0,1063040982","0,5142007823","1,923505324","1,993884584"
"12,42616042","-0,03989778165","0,2878746526","1,404364375","1,434120966"
"12,43611342","-0,08856963929","0,1478034322","1,204798905","1,217058272"
"12,44606642","-0,2310260486","0,1832594861","1,404246261","1,434874432"
"12,45602042","0,8024131116","-0,6714787504","-0,2895997274","1,085641983"
"12,46597342","-0,4991231155","-0,1427616705","-0,3489413649","0,6255116746"
"12,47592742","-1,249255724","1,28832638","2,389062388","2,987983236"
"12,48588042","0,09341208402","-0,500445646","1,06783431","1,18298004"
"12,49583342","-0,3255760373","-0,8607363103","0,7746590102","1,20289789"
"12,50578742","-0,1624608304","-0,3783589992","2,291806235","2,32850271"
"12,51574042","-0,2628577059","-1,024826869","2,969602025","3,152443571"
"12,52569342","-0,1099473521","-1,145537813","3,145291559","3,349209503"
"12,53564742","-0,0776179871","-1,099331799","3,506943017","3,67603105"
"12,54560042","-0,06940188166","-1,046992348","3,432665251","3,589456829"
"12,55555342","0,146867695","-0,9501671349","2,661044455","2,829407234"
"12,56550742","0,3167351569","-0,964629638","1,599600567","1,894611694"
"12,57546042","0,3554953993","-0,933977218","0,4639215982","1,101777506"
"12,58541342","0,3013942192","-0,8318555966","-0,5652801579","1,049935172"
"12,59536742","0,1780252779","-0,7453306921","-1,402640616","1,598315218"
"12,60532042","0,08396272771","-0,8253530543","-1,821186066","2,001243636"
"12,61527342","0,03685532916","-0,9238882859","-1,574000872","1,825488051"
"12,62522742","0,1264085798","-0,9755396654","-1,103603482","1,478376614"
"12,63518042","0,1898503214","-1,102493827","-0,6693290216","1,303662963"
"12,64513342","0,1076083562","-1,082187616","-0,593676576","1,239016333"
"12,65508742","0,05327372599","-1,053262318","-0,6730355716","1,251070134"
"12,66504042","0,1825848636","-1,024100499","-0,8554096431","1,346790526"
"12,67499442","0,3215066676","-0,8767079799","-1,237065595","1,549940226"
"12,68494742","0,2826366437","-0,7351746632","-1,443282858","1,644211259"
"12,69490042","0,3459363346","-0,6544309008","-1,453296799","1,630957798"
"12,70485442","0,3473387893","-0,6060225333","-1,443598607","1,603709601"
"12,71480742","0,3076447465","-0,5303075226","-1,432698812","1,558363644"
"12,72476042","0,2370345743","-0,5621350868","-1,589801803","1,702836169"
"12,73471442","0,1185721779","-0,5618352708","-1,664197097","1,760474428"
"12,74466742","0,1223203162","-0,4447439003","-1,461893376","1,532935627"
"12,75462042","0,192276989","-0,4316500841","-1,209305938","1,298350141"
"12,76457442","0,3585584997","-0,4698063822","-1,235866916","1,369908489"
"12,77452742","0,3982660642","-0,4865827748","-1,504271656","1,630402364"
"12,78448042","0,3218042909","-0,4289711823","-1,77170225","1,851081613"
"12,79443442","0,3533088695","-0,3488789459","-1,828619047","1,894832788"
"12,80438742","0,5218412659","-0,363951606","-1,732923515","1,846023561"
"12,81434042","0,6366981961","-0,3348174155","-1,506612881","1,669541754"
"12,82429442","0,6368236189","-0,3453942977","-1,318835982","1,504715883"
"12,83424742","0,4710586731","-0,3552673213","-1,156935936","1,298696232"
"12,84420042","0,2855356202","-0,3266817458","-0,8863531083","0,9868502348"
"12,85415442","0,2338990049","-0,3482087088","-0,5414492458","0,6849272481"
"12,86410742","0,2942521376","-0,2816593547","-0,3828938073","0,5590384426"
"12,87406142","0,2794204558","-0,2190961938","-0,3691797477","0,5122232125"
"12,88401442","0,1938549332","-0,1224535596","-0,3942730737","0,4560985267"
"12,89396742","0,1232989208","-0,03751617417","-0,4288225168","0,4477709661"
"12,90392142","0,1026072326","-0,03615055695","-0,4828186297","0,4949231619"
"12,91387442","0,04873522684","-0,08232265681","-0,2771188456","0,2931671822"
"12,92382742","0,1215811551","-0,06499092489","0,06251609087","0,1513739053"
"12,93378142","0,182198655","-0,04887775272","0,2815036726","0,3388653158"
"12,94373442","0,193046044","-0,01852880314","0,3132540536","0,3684266464"
"12,95368742","0,1440620913","0,04861375093","0,1883323842","0,2420460078"
"12,96364142","0,08674680635","0,1106942242","-0,072635867","0,1582851505"
"12,97359442","0,04341952309","0,04648141757","-0,1716812682","0,1830853217"
"12,98354742","0,04404627152","0,1000104842","-0,1178757745","0,1607385118"
"12,99350142","-0,02329640351","0,1692254376","-0,2225315791","0,2805356927"
"13,00345442","0,1366743536","0,1129288839","-0,1414271897","0,2267916703"
"13,01340742","0,1510868631","0,06498975545","0,006793295145","0,1646118385"
"13,02336142","0,1220728328","0,05690349475","-0,1446683013","0,1976580422"
"13,03331442","0,05356977783","-0,02287708506","0,006835979819","0,05864991678"
"13,04326742","-0,106871607","0,04391463608","0,1402682716","0,1817284338"
"13,05322142","-0,04809137531","0,02903654203","0,06966255784","0,08949174887"
"13,06317442","0,0251452931","-0,1202390729","0,1077203304","0,1633811188"
"13,07312742","0,0469046098","-0,004736098498","0,09338822007","0,104612775"
"13,08308142","-0,022827603","-0,004150792211","-0,5322965991","0,5328020251"
"13,09303442","-0,1777436614","-0,03341786072","-0,5673489028","0,5954782449"
"13,10298842","-0,1221479695","0,0784051685","-0,006155363917","0,1452769266"
"13,11294142","-0,2060495938","0,09551836073","0,4113223851","0,469857741"
"13,12289442","-0,1923756608","0,1153896846","1,028114759","1,052303726"
"13,13284842","-0,08300159164","-0,02730839744","1,011102285","1,01487085"
"13,14280142","-0,1218897419","0,0005559240282","1,310790798","1,316445948"
"13,15275442","-0,1119875553","-0,1866559875","0,7690468526","0,799258864"
"13,16270842","0,2655559035","-0,2871558836","-0,5226720822","0,6528127947"
"13,17266142","0,3411081424","-0,2797574016","-0,3449483013","0,5600074099"