"Time (s)","Acceleration x (m/s^2)","Acceleration y (m/s^2)","Acceleration z (m/s^2)","Absolute acceleration (m/s^2)"
3.260708334E-3,2.165995789E-1,8.569679260E-1,8.836125183E0,8.880226216E0
1.318970833E-2,1.523831177E-1,1.201251984E0,8.255482635E0,8.343813306E0
2.311770833E-2,1.709445190E-1,1.613943787E0,8.673563232E0,8.824099712E0
3.304670833E-2,4.240681458E-1,1.693727875E0,8.926088104E0,9.095251330E0
4.297470833E-2,6.069877625E-1,1.817370758E0,8.882678375E0,9.086982213E0
5.290370833E-2,7.682025146E-1,1.756447449E0,8.871152344E0,9.075934478E0
6.283170834E-2,7.695497131E-1,1.506616974E0,8.847501526E0,9.007795775E0
7.276070834E-2,5.423222351E-1,1.285826111E0,8.988059235E0,9.095750161E0
8.268870834E-2,3.240760803E-1,1.162033539E0,9.275162201E0,9.353287182E0
9.261670834E-2,3.562591553E-2,9.723779297E-1,9.377249908E0,9.427597992E0
1.025457083E-1,-3.100053406E-1,9.723779297E-1,9.158105621E0,9.214799006E0
1.124737083E-1,-5.309458923E-1,1.209634552E0,9.003028107E0,9.099430443E0
1.224027083E-1,-5.057981873E-1,1.195414124E0,9.049880676E0,9.142493478E0
1.323307083E-1,-3.442840576E-1,1.140178986E0,9.282646637E0,9.358742876E0
1.422597083E-1,-1.869612122E-1,1.030756531E0,9.315428467E0,9.374146417E0
1.521877083E-1,-2.317181396E-1,7.999365234E-1,9.079818420E0,9.117932566E0
1.621167083E-1,-4.463717651E-1,5.881269836E-1,8.466094666E0,8.498229227E0
1.720447083E-1,-6.632707214E-1,6.394702148E-1,7.799979858E0,7.854204988E0
1.819727083E-1,-6.125262451E-1,8.710386658E-1,7.369325409E0,7.445861518E0
1.919017083E-1,-4.087998962E-1,1.401385803E0,6.702162781E0,6.859299196E0
2.018297083E-1,-1.930984497E-1,2.330054626E0,6.154152374E0,6.583314744E0
2.117587083E-1,1.428030396E-1,3.230132904E0,5.867797852E0,6.699641999E0
2.216867083E-1,4.288581848E-1,3.811972961E0,5.656437378E0,6.834496398E0
2.316157083E-1,4.079017639E-1,4.241130524E0,5.561834106E0,7.006252250E0
2.415437083E-1,1.975891113E-2,4.588408356E0,5.410947876E0,7.094521729E0
2.514727083E-1,-4.589456177E-1,4.868026886E0,5.280269623E0,7.196496657E0
2.614007083E-1,-7.319778442E-1,5.026996307E0,5.728437653E0,7.656466638E0
2.713287083E-1,-9.610015869E-1,4.630770264E0,6.310577087E0,7.886123285E0
2.812577083E-1,-1.180594940E0,3.935166779E0,7.210355988E0,8.298709264E0
2.911857083E-1,-1.182840271E0,3.481310577E0,8.171806641E0,8.960862582E0
3.011147083E-1,-1.035247192E0,2.818937988E0,8.951984253E0,9.442254508E0
3.110427083E-1,-9.412426758E-1,2.125430145E0,9.846823425E0,1.011747610E1
3.209717083E-1,-8.855584717E-1,1.764530640E0,1.025008484E1,1.043848750E1
3.308997083E-1,-7.969427490E-1,1.818119202E0,9.862840118E0,1.006063071E1
3.408277083E-1,-6.092330933E-1,2.298769684E0,9.229956207E0,9.531400664E0
3.507567083E-1,-3.315605164E-1,2.913690948E0,8.584797821E0,9.071839998E0
3.606847083E-1,9.220825195E-2,3.502566376E0,8.047565002E0,8.777230545E0
3.706137083E-1,3.475772095E-1,4.062701569E0,7.497309265E0,8.534400985E0
3.805417083E-1,5.303471375E-1,4.489613800E0,7.264243927E0,8.556117109E0
3.904707083E-1,7.077282715E-1,4.757107544E0,7.336543579E0,8.772446818E0
4.003987083E-1,9.147477722E-1,5.062921600E0,7.561226349E0,9.145604546E0
4.103277083E-1,1.120869141E0,5.336103516E0,7.869285736E0,9.573714345E0
4.202557083E-1,1.270857239E0,5.398074646E0,8.193511505E0,9.893832361E0
4.301847083E-1,1.112935638E0,5.377866669E0,8.456215210E0,1.008303780E1
4.401127083E-1,5.382806396E-1,5.326972504E0,8.865164795E0,1.035652108E1
4.500407083E-1,2.155517578E-2,5.034780121E0,9.530980225E0,1.077910291E1
4.599697083E-1,-4.438270569E-1,4.767136688E0,1.013527359E1,1.120920806E1
4.698977083E-1,-9.303153992E-1,4.467459869E0,1.044677582E1,1.139994778E1
4.798267083E-1,-1.373843079E0,4.262386322E0,1.081426163E1,1.170485525E1
4.897547083E-1,-1.297801208E0,4.254752197E0,1.146076721E1,1.229375408E1
4.996837083E-1,-9.186396790E-1,4.174818420E0,1.177810730E1,1.252983716E1
5.096110833E-1,-5.800437927E-1,4.060306549E0,1.170745422E1,1.240512090E1
5.195400833E-1,-3.412902832E-1,3.847000122E0,1.157483002E1,1.220215468E1
5.294680833E-1,-3.427871704E-1,3.679049377E0,1.138158188E1,1.196634085E1
5.393960833E-1,-4.216731262E-1,3.619922333E0,1.102038300E1,1.160734626E1
5.493250833E-1,-4.444258118E-1,3.733985138E0,1.051757858E1,1.116958453E1
5.592530833E-1,-2.622546387E-1,3.989204407E0,1.034738251E1,1.109282895E1
5.691820833E-1,1.158590698E-1,4.281396790E0,1.054317535E1,1.137990898E1
5.791100833E-1,5.117857361E-1,4.440665588E0,1.090362579E1,1.178433244E1
5.890390833E-1,9.069639587E-1,4.711302795E0,1.147693359E1,1.243941166E1
5.989670833E-1,1.042731628E0,4.766388245E0,1.180175812E1,1.277056149E1
6.088960833E-1,7.735913086E-1,4.865631866E0,1.204859482E1,1.301696793E1
6.188240833E-1,4.393363953E-1,4.806355133E0,1.232267487E1,1.323413699E1
6.287530833E-1,2.757266235E-1,4.645439758E0,1.263088394E1,1.346088277E1
6.386810833E-1,2.673440552E-1,4.490362244E0,1.315105225E1,1.389910073E1
6.486090833E-1,2.715353394E-1,4.246070251E0,1.373708359E1,1.438090086E1
6.585380833E-1,2.421963501E-1,4.064198456E0,1.417028275E1,1.474358441E1
6.684660833E-1,8.876541138E-2,3.832180939E0,1.455019272E1,1.504664741E1
6.783950833E-1,-7.993377686E-2,3.480562134E0,1.467323685E1,1.508060283E1
6.883230833E-1,-1.640588379E-1,3.154689789E0,1.463386871E1,1.497094174E1
6.982520833E-1,-1.351689148E-1,2.948119354E0,1.452669159E1,1.482344248E1
7.081800833E-1,-4.595443726E-2,2.769241333E0,1.428973434E1,1.455566271E1
7.181090833E-1,6.990463257E-2,2.659669189E0,1.392793671E1,1.417977954E1
7.280370833E-1,1.416055298E-1,2.819985809E0,1.354114105E1,1.383238494E1
7.379650833E-1,2.222877502E-1,2.968027954E0,1.333801346E1,1.366606032E1
7.478940833E-1,3.480262756E-1,3.019520874E0,1.323308167E1,1.357766839E1
7.578220833E-1,4.810995483E-1,3.074007568E0,1.318847443E1,1.355052903E1
7.677510833E-1,6.032455444E-1,3.067570953E0,1.325822937E1,1.362184065E1
7.776790833E-1,6.902146912E-1,2.957400055E0,1.341674973E1,1.375615443E1
7.876080833E-1,7.499404907E-1,2.817141724E0,1.366717896E1,1.397463698E1
7.975360833E-1,6.185137939E-1,2.583028564E0,1.392389511E1,1.417495859E1
8.074650833E-1,4.686753845E-1,2.204016724E0,1.410546753E1,1.428431169E1
8.173930833E-1,2.529739380E-1,1.833088074E0,1.422821228E1,1.434803932E1
8.273220833E-1,1.975891113E-2,1.496587830E0,1.415666107E1,1.423556175E1
8.372500833E-1,-1.652563477E-1,1.244512024E0,1.393152924E1,1.398798151E1
8.471780833E-1,-2.100132751E-1,1.058898010E0,1.366074234E1,1.370332995E1
8.571070833E-1,-1.678010559E-1,1.008153534E0,1.343471237E1,1.347353062E1
8.670350833E-1,-4.355941772E-2,1.090332642E0,1.322320221E1,1.326814981E1
8.769640833E-1,-6.466552734E-2,1.196761322E0,1.298340088E1,1.303860106E1
8.868920833E-1,-2.281256104E-1,1.248553619E0,1.271291336E1,1.277611418E1
8.968210833E-1,-3.194357300E-1,1.343007202E0,1.251277954E1,1.258869967E1
9.067490833E-1,-1.881587219E-1,1.460812225E0,1.225142303E1,1.233964110E1
9.166780833E-1,5.987548828E-3,1.513802032E0,1.195114746E1,1.204664095E1
9.266060833E-1,1.721420288E-1,1.470841370E0,1.174113419E1,1.183415562E1
9.365340833E-1,1.634600830E-1,1.408870239E0,1.168140839E1,1.176719748E1
9.464630833E-1,8.726852417E-2,1.306782532E0,1.182735489E1,1.189964790E1
9.563910833E-1,1.133143616E-1,1.180145874E0,1.192180847E1,1.198061358E1
9.663200833E-1,1.293310547E-1,1.195414124E0,1.190384583E1,1.196441753E1
9.762480833E-1,1.272354126E-1,1.296753387E0,1.186013672E1,1.193149618E1
9.861770833E-1,1.877096558E-1,1.212029572E0,1.189082291E1,1.195390815E1
9.961050833E-1,2.128573608E-1,1.005908203E0,1.195369217E1,1.199782964E1
1.006034083E0,1.892065430E-1,7.235952759E-1,1.200279007E1,1.202606996E1
1.015962083E0,9.819580078E-2,3.743714905E-1,1.196297287E1,1.196923207E1
1.025891083E0,-2.125579834E-1,1.103205872E-1,1.172915909E1,1.173160366E1
1.035819083E0,-5.176235962E-1,9.460327148E-2,1.141166931E1,1.142379449E1
1.045747083E0,-5.571414185E-1,2.248324585E-1,1.108654541E1,1.110281250E1
1.055676083E0,-2.915936279E-1,4.020639038E-1,1.083207458E1,1.084345526E1
1.065604083E0,-1.459465027E-1,4.972659302E-1,1.060035645E1,1.061301703E1
1.075533083E0,-2.327659607E-1,4.067042542E-1,1.030232620E1,1.031297792E1
1.085461083E0,-4.216731262E-1,2.502795410E-1,9.966125336E0,9.978181311E0
1.095390083E0,-6.152206421E-1,-4.191284180E-3,9.583520966E0,9.603248831E0
1.105318083E0,-8.101153564E-1,-2.264790344E-1,9.297166443E0,9.335142394E0
1.115247083E0,-9.617500305E-1,-3.677851868E-1,9.046437836E0,9.104848520E0
1.125175083E0,-9.548643494E-1,-3.770658875E-1,8.788374481E0,8.848133737E0
1.135103083E0,-7.011419678E-1,-2.236349487E-1,8.586145020E0,8.617627222E0
1.145032083E0,-3.462300110E-1,-9.580078125E-3,8.430768127E0,8.437879960E0
1.154960083E0,-3.966751099E-2,1.678010559E-1,8.339308319E0,8.341090693E0
1.164889083E0,1.682501221E-1,2.044747925E-1,8.258476410E0,8.262720536E0
1.174817083E0,2.206411743E-1,1.423539734E-1,8.162376251E0,8.166598634E0
1.184746083E0,7.918533325E-2,-4.131408691E-2,8.086035004E0,8.086528257E0
1.194674083E0,-1.848655701E-1,-3.014730835E-1,8.114176483E0,8.121879173E0
1.204603083E0,-3.983216858E-1,-5.637277222E-1,8.133037262E0,8.162275676E0
1.214531083E0,-5.367837524E-1,-6.581813049E-1,8.055947571E0,8.100594465E0
1.224460083E0,-5.589376831E-1,-6.382727051E-1,7.996221771E0,8.041104775E0
1.234388083E0,-4.843927002E-1,-6.518943787E-1,7.916287994E0,7.957840045E0
1.244316083E0,-4.032614136E-1,-4.918771362E-1,7.837402039E0,7.863169437E0
1.254245083E0,-3.095562744E-1,-2.676434326E-1,7.734116821E0,7.744935190E0
1.264173083E0,-2.092648315E-1,-1.172062683E-1,7.728428650E0,7.732149667E0
1.274102083E0,-1.213975525E-1,-4.909790039E-2,7.861501923E0,7.862592476E0
1.284030083E0,-1.184037781E-1,-6.706054688E-2,7.905360718E0,7.906531771E0
1.293959083E0,-2.056723022E-1,-1.538800049E-1,7.899672546E0,7.903847575E0
1.303887083E0,-3.800596619E-1,-2.553689575E-1,7.846533051E0,7.859881651E0
1.313816083E0,-5.613327026E-1,-3.188369751E-1,7.675887909E0,7.702986863E0
1.323744083E0,-6.207591248E-1,-2.746788025E-1,7.540718994E0,7.571210820E0
1.333673083E0,-5.680686951E-1,-1.651066589E-1,7.474855957E0,7.498228713E0
1.343601083E0,-4.043092346E-1,-6.840774536E-2,7.461383972E0,7.472643197E0
1.353529083E0,-3.273692322E-1,-2.799179077E-2,7.403753815E0,7.411040730E0
1.363458083E0,-3.134481812E-1,-7.484436035E-2,7.422165527E0,7.429158267E0
1.373386083E0,-3.297642517E-1,-1.651066589E-1,7.485783234E0,7.494861926E0
1.383315083E0,-3.534150696E-1,-2.526745605E-1,7.505841522E0,7.518404325E0
1.393243083E0,-4.044589233E-1,-2.878514099E-1,7.497758331E0,7.514174968E0
1.403172083E0,-3.998185730E-1,-2.294728088E-1,7.461833038E0,7.476059454E0
1.413100083E0,-3.836521912E-1,-1.463955688E-1,7.448510742E0,7.459821241E0
1.423029083E0,-3.896397400E-1,-1.056802368E-1,7.563621368E0,7.574388137E0
1.432957083E0,-3.644920349E-1,-1.766326904E-2,7.761509857E0,7.770083764E0
1.442885083E0,-2.918930054E-1,1.083746338E-1,7.882009277E0,7.888156745E0
1.452814083E0,-1.562750244E-1,2.155517578E-1,7.882757721E0,7.887252610E0
1.462742083E0,-1.392105103E-2,2.841091919E-1,8.077951813E0,8.082958451E0
1.472671083E0,7.155120850E-2,2.850073242E-1,8.330626373E0,8.335807371E0
1.482599083E0,8.187973022E-2,2.064207458E-1,8.538843384E0,8.541730512E0
1.492528083E0,3.412902832E-2,1.170565796E-1,8.764424286E0,8.765272391E0
1.502456083E0,-2.918930054E-2,1.978884888E-1,8.868158569E0,8.870414211E0
1.512385958E0,-3.278182983E-2,3.426374817E-1,8.830137634E0,8.836843652E0
1.522313958E0,2.260299683E-2,5.207670593E-1,8.785680084E0,8.801129687E0
1.532242958E0,6.122268677E-2,7.131170654E-1,8.824000397E0,8.852980694E0
1.542170958E0,6.376739502E-2,8.137078857E-1,8.889863434E0,8.927253703E0
1.552098958E0,-3.637435913E-2,8.849597168E-1,9.003776550E0,9.047235432E0
1.562027958E0,-1.823208618E-1,8.747808838E-1,9.247020721E0,9.290095517E0
1.571955958E0,-3.153941345E-1,8.536747742E-1,9.500443726E0,9.543933417E0
1.581884958E0,-4.746629333E-1,8.583151245E-1,9.738299103E0,9.787567582E0
1.591812958E0,-6.644682312E-1,9.654922485E-1,1.003812561E1,1.010631778E1
1.601741958E0,-5.942642212E-1,1.103505249E0,1.029993118E1,1.037590749E1
1.611669958E0,-4.183799744E-1,1.262175293E0,1.048823959E1,1.057219457E1
1.621598958E0,-2.778222656E-1,1.550326080E0,1.065634003E1,1.077210652E1
1.631526958E0,-1.965412903E-1,1.771566010E0,1.078731766E1,1.093358573E1
1.641454958E0,-1.660047913E-1,1.913021851E0,1.087413712E1,1.104237602E1
1.651383958E0,-1.950444031E-1,2.116448822E0,1.091844498E1,1.112339151E1
1.661311958E0,-2.137554932E-1,2.188299408E0,1.091305618E1,1.113234661E1
1.671240958E0,-2.007325745E-1,2.040706329E0,1.103026245E1,1.121924532E1
1.681168958E0,-3.112028503E-1,1.728156281E0,1.122036713E1,1.135693664E1
1.691097958E0,-5.602848816E-1,1.389111328E0,1.139520355E1,1.149322467E1
1.701025958E0,-8.608598328E-1,1.208586731E0,1.147169449E1,1.156726139E1
1.710954958E0,-1.028511200E0,1.228046265E0,1.153381531E1,1.164451925E1
1.720882958E0,-1.024020538E0,1.408870239E0,1.162976578E1,1.175946366E1
1.730811958E0,-8.087681580E-1,1.666334839E0,1.162781982E1,1.177442022E1
1.740739958E0,-5.825885010E-1,1.870210876E0,1.165491348E1,1.181838002E1
1.750667958E0,-4.740641785E-1,2.023342438E0,1.177765823E1,1.195959384E1
1.760596958E0,-3.888912964E-1,2.166594543E0,1.193842392E1,1.213965955E1
1.770524958E0,-2.793191528E-1,2.233505402E0,1.219199661E1,1.239803803E1
1.780453958E0,-2.477348328E-1,2.252515869E0,1.248583557E1,1.268981049E1
1.790381958E0,-1.865121460E-1,2.287093964E0,1.268971161E1,1.289551729E1
1.800310958E0,-2.453398132E-1,2.390229492E0,1.292232788E1,1.314381781E1
1.810238958E0,-3.293151855E-1,2.497406616E0,1.312246170E1,1.336205409E1
1.820167958E0,-2.618055725E-1,2.635269928E0,1.319610855E1,1.345921508E1
1.830095958E0,-1.402583313E-1,2.773731995E0,1.331286575E1,1.359947264E1
1.840023958E0,8.083190918E-3,2.896327057E0,1.341689941E1,1.372595955E1
1.849952958E0,1.336720276E-1,2.935545502E0,1.343590988E1,1.375350755E1
1.859880958E0,1.673519897E-1,2.912493439E0,1.348770218E1,1.379959183E1
1.869809958E0,2.035766602E-1,2.903362427E0,1.357467133E1,1.388317897E1
1.879737958E0,1.962419128E-1,2.845283203E0,1.358739487E1,1.388349548E1
1.889666958E0,1.841171265E-1,2.907553711E0,1.355012238E1,1.385978297E1
1.899594958E0,1.607656860E-1,3.060984650E0,1.348291214E1,1.382694443E1
1.909523958E0,1.818717957E-1,3.244503021E0,1.333427124E1,1.372452792E1
1.919451958E0,2.363584900E-1,3.488495636E0,1.323397980E1,1.368808564E1
1.929380958E0,2.576142883E-1,3.569926300E0,1.323891953E1,1.371421631E1
1.939308958E0,2.017803955E-1,3.528163147E0,1.331106949E1,1.377219015E1
1.949236958E0,-4.221221924E-2,3.331472168E0,1.331600922E1,1.372649227E1
1.959165958E0,-4.107458496E-1,3.034190369E0,1.323697357E1,1.358648198E1
1.969093958E0,-6.824308777E-1,2.766996002E0,1.317949310E1,1.348410239E1
1.979022958E0,-9.587562561E-1,2.603086853E0,1.313279022E1,1.342257255E1
1.988950958E0,-1.116079102E0,2.749781799E0,1.298429901E1,1.331911984E1
1.998879958E0,-9.554631042E-1,3.115621033E0,1.282293457E1,1.323055763E1
2.008807958E0,-5.954617310E-1,3.465742950E0,1.275707153E1,1.323286904E1
2.018736958E0,-4.489164734E-1,3.693718872E0,1.277862671E1,1.330933453E1
2.028664958E0,-4.706213379E-1,3.663481750E0,1.281485138E1,1.333652874E1
2.038593958E0,-6.450086975E-1,3.479963379E0,1.281260605E1,1.329244353E1
2.048521958E0,-8.843609619E-1,3.287463684E0,1.279554153E1,1.324067200E1
2.058449958E0,-1.107397156E0,3.129841461E0,1.281380356E1,1.323691043E1
2.068378958E0,-1.215921478E0,3.089425507E0,1.277997391E1,1.320419434E1
2.078306958E0,-1.098116455E0,3.304079132E0,1.272174500E1,1.318960175E1
2.088235958E0,-7.045848083E-1,3.623365173E0,1.265573227E1,1.318304874E1
2.098163958E0,-3.095562744E-1,3.856580200E0,1.250245102E1,1.308741065E1
2.108092958E0,-1.317260742E-2,4.115541687E0,1.227133163E1,1.294308452E1
2.118020958E0,1.185534668E-1,4.075874176E0,1.186642365E1,1.254746251E1
2.127949958E0,-9.175918579E-2,3.788022766E0,1.135763168E1,1.197302525E1
2.137877958E0,-4.722679138E-1,3.551065521E0,1.085557571E1,1.143138782E1
2.147805958E0,-7.568261719E-1,3.283721466E0,1.044737457E1,1.097739714E1
2.157734958E0,-8.774752808E-1,3.148253174E0,1.015054184E1,1.066372170E1
2.167662958E0,-8.699908447E-1,3.234324188E0,9.976753235E0,1.052394138E1
2.177591958E0,-6.921606445E-1,3.285368042E0,9.942025452E0,1.049364568E1
2.187519958E0,-4.942721558E-1,3.299588470E0,1.002869522E1,1.056912091E1
2.197448958E0,-4.276606750E-1,3.324137421E0,1.016131943E1,1.069977550E1
2.207376958E0,-3.902384949E-1,3.199895782E0,1.022448807E1,1.072062383E1
2.217305958E0,-5.025050354E-1,3.101550293E0,1.026086243E1,1.073114268E1
2.227233958E0,-6.586303711E-1,2.991080017E0,1.037073395E1,1.081353209E1
2.237162958E0,-7.207511902E-1,2.901266785E0,1.040471329E1,1.082565886E1
2.247090958E0,-7.556286621E-1,2.902613983E0,1.029259644E1,1.072071285E1
2.257018958E0,-7.979905701E-1,2.888992310E0,1.006806335E1,1.050471157E1
2.266947958E0,-8.893006897E-1,2.836152191E0,9.790989532E0,1.023220851E1
2.276875958E0,-9.913883972E-1,2.845582581E0,9.506281586E0,9.972441063E0
2.286804958E0,-9.999206543E-1,2.927312622E0,9.270671539E0,9.773144391E0
2.296732958E0,-9.419911194E-1,2.968477020E0,8.980874176E0,9.505540703E0
2.306661958E0,-8.807684326E-1,2.955903168E0,8.693322144E0,9.224259670E0
2.316589958E0,-8.963360596E-1,2.930456085E0,8.381520538E0,8.924173784E0
2.326518958E0,-9.139993286E-1,2.859054565E0,8.076454926E0,8.616188946E0
2.336446958E0,-9.231303406E-1,2.816692657E0,7.764204254E0,8.310763795E0
2.346375958E0,-9.357041931E-1,2.824177094E0,7.464826813E0,8.035866969E0
2.356303958E0,-8.821156311E-1,2.751128998E0,7.223079529E0,7.779441923E0
2.366231958E0,-7.852670288E-1,2.642754364E0,7.122788086E0,7.637729051E0
2.376160958E0,-7.788304138E-1,2.571352844E0,6.985074463E0,7.483962688E0
2.386088958E0,-7.798782349E-1,2.465971985E0,6.912774811E0,7.380764424E0
2.396017958E0,-7.607180786E-1,2.375110931E0,6.864874420E0,7.303858209E0
2.405945958E0,-8.327183533E-1,2.307900696E0,6.836732941E0,7.263659049E0
2.415874958E0,-8.653504944E-1,2.268981628E0,6.938221893E0,7.350920497E0
2.425802958E0,-8.337661743E-1,2.254312134E0,7.075636139E0,7.472731495E0
2.435731958E0,-8.065228271E-1,2.292183380E0,7.210056610E0,7.608514969E0
2.445659958E0,-7.455995178E-1,2.225272522E0,7.435188446E0,7.796780340E0
2.455587958E0,-6.894662476E-1,2.238894196E0,7.715555420E0,8.063361976E0
2.465516958E0,-6.426136780E-1,2.210603027E0,7.868237915E0,8.198102584E0
2.475444958E0,-6.671626282E-1,2.060614929E0,7.941286011E0,8.231358537E0
2.485373958E0,-6.593788147E-1,1.989662476E0,8.027806091E0,8.296939666E0
2.495301958E0,-6.508465576E-1,1.975591736E0,8.029602356E0,8.294641520E0
2.505230958E0,-5.908213806E-1,2.083068237E0,7.872578888E0,8.164909156E0
2.515158250E0,-4.842430115E-1,2.282154236E0,7.594906311E0,7.945144500E0
2.525087250E0,-3.445834351E-1,2.448608093E0,7.322472839E0,7.728714500E0
2.535015250E0,-2.887495422E-1,2.565365295E0,7.042704620E0,7.500944192E0
2.544944250E0,-2.050735474E-1,2.658321991E0,6.844816132E0,7.345763326E0
2.554872250E0,-2.408491516E-1,2.702480164E0,6.750811615E0,7.275635011E0
2.564800250E0,-3.385958862E-1,2.690804443E0,6.676566010E0,7.206358956E0
2.574729250E0,-4.604425049E-1,2.533032532E0,6.730004883E0,7.205638544E0
2.584657250E0,-6.270460510E-1,2.320324860E0,6.932384033E0,7.337236713E0
2.594586250E0,-7.908055115E-1,2.087558899E0,7.221882019E0,7.559024766E0
2.604514250E0,-9.280700684E-1,1.858684845E0,7.471712494E0,7.755160282E0
2.614443250E0,-9.638456726E-1,1.731449432E0,7.619006195E0,7.872494587E0
2.624371250E0,-1.035696259E0,1.677262115E0,7.791148224E0,8.036657613E0
2.634300250E0,-1.038989410E0,1.674867096E0,8.018525391E0,8.257204625E0
2.644228250E0,-1.011147308E0,1.814077606E0,8.112529907E0,8.374152968E0
2.654156250E0,-9.563612366E-1,1.906136169E0,8.134683838E0,8.409581622E0
2.664085250E0,-8.126600647E-1,2.013612671E0,8.200397186E0,8.483016349E0
2.674013250E0,-7.018904114E-1,2.060315552E0,8.238567810E0,8.521241100E0
2.683942250E0,-6.120771790E-1,2.084415436E0,8.311316528E0,8.590541812E0
2.693870250E0,-5.774990845E-1,2.026485901E0,8.448730774E0,8.707537079E0
2.703799250E0,-5.566923523E-1,1.941013641E0,8.543184357E0,8.778578432E0
2.713727250E0,-6.212081909E-1,1.922751617E0,8.560248871E0,8.795495104E0
2.723656250E0,-7.493417358E-1,1.971999207E0,8.562643890E0,8.818682685E0
2.733584250E0,-8.375083923E-1,2.114502869E0,8.556656342E0,8.853751207E0
2.743513250E0,-7.746391296E-1,2.404898987E0,8.640332336E0,9.002163507E0
2.753441250E0,-5.861810303E-1,2.739902344E0,8.866961060E0,9.299122081E0
2.763369250E0,-4.276606750E-1,3.010090485E0,9.183702393E0,9.673878644E0
2.773298250E0,-3.736230469E-1,3.105591888E0,9.519304504E0,1.002005257E1
2.783226250E0,-4.897814941E-1,2.994223480E0,9.969717865E0,1.042115802E1
2.793155250E0,-8.244854736E-1,2.921325073E0,1.047102539E1,1.090212315E1
2.803083250E0,-1.057700500E0,2.796933746E0,1.087353836E1,1.127720733E1
2.813012250E0,-1.112336884E0,2.766546936E0,1.116662888E1,1.155788371E1
2.822940250E0,-1.038540344E0,2.885250092E0,1.133667526E1,1.174408107E1
2.832869250E0,-8.126600647E-1,2.968177643E0,1.135493729E1,1.176456951E1
2.842797250E0,-6.280938721E-1,3.011587372E0,1.139355698E1,1.180158044E1
2.852726250E0,-5.137316895E-1,3.039279785E0,1.147798141E1,1.188466235E1
2.862654250E0,-5.378315735E-1,3.100652161E0,1.148771118E1,1.191095356E1
2.872582250E0,-6.252497864E-1,3.212469635E0,1.133847153E1,1.180134886E1
2.882511250E0,-6.979985046E-1,3.249143372E0,1.115869537E1,1.164305016E1
2.892439250E0,-7.503895569E-1,3.104544067E0,1.116138977E1,1.160938844E1
2.902368250E0,-8.402027893E-1,2.843187561E0,1.127874573E1,1.166189356E1
2.912296250E0,-8.897497559E-1,2.592608643E0,1.142409348E1,1.174832694E1
2.922225250E0,-8.924441528E-1,2.443069611E0,1.157198593E1,1.186068734E1
2.932153250E0,-8.729846191E-1,2.355202332E0,1.179142960E1,1.205598988E1
2.942082250E0,-9.048683167E-1,2.297721863E0,1.209948898E1,1.234892490E1
2.952010250E0,-9.033714294E-1,2.302811279E0,1.244781464E1,1.269122173E1
2.961939250E0,-8.583151245E-1,2.394570465E0,1.274240204E1,1.299382477E1
2.971867250E0,-7.262896729E-1,2.564317474E0,1.294717621E1,1.321864564E1
2.981795250E0,-5.569917297E-1,2.746039581E0,1.311871948E1,1.341461047E1
2.991724250E0,-4.516108704E-1,2.762355652E0,1.319012100E1,1.348383674E1
3.001652250E0,-4.670288086E-1,2.675236816E0,1.319865326E1,1.347514214E1
3.011581250E0,-5.427713013E-1,2.539918213E0,1.320015015E1,1.345324307E1
3.021509250E0,-6.255491638E-1,2.435734863E0,1.325224182E1,1.348873713E1
3.031438250E0,-6.444099426E-1,2.429747314E0,1.339190140E1,1.362578289E1
3.041366250E0,-6.197113037E-1,2.373015289E0,1.353545288E1,1.375586160E1
3.051295250E0,-4.893324280E-1,2.348616028E0,1.369232666E1,1.390090835E1
3.061223250E0,-3.745211792E-1,2.335144043E0,1.384216507E1,1.404274537E1
3.071152250E0,-3.077600098E-1,2.310744781E0,1.385937927E1,1.405406174E1
3.081080250E0,-2.932402039E-1,2.270628204E0,1.366702927E1,1.385746843E1
3.091008250E0,-3.553610229E-1,2.153421936E0,1.350416794E1,1.367940274E1
3.100937250E0,-4.029620361E-1,1.996248779E0,1.339968521E1,1.355355862E1
3.110865250E0,-5.340893555E-1,1.942211151E0,1.327768890E1,1.342961125E1
3.120794250E0,-5.821394348E-1,2.071841583E0,1.318338501E1,1.335788360E1
3.130722250E0,-5.358856201E-1,2.097588043E0,1.304552170E1,1.322394364E1
3.140651250E0,-4.939727783E-1,2.160606995E0,1.301992493E1,1.320722063E1
3.150579250E0,-3.776646423E-1,2.155218201E0,1.309955933E1,1.328104102E1
3.160508250E0,-2.630030823E-1,2.149230652E0,1.318098999E1,1.335765174E1
3.170436250E0,-2.643502808E-1,2.098935242E0,1.310150528E1,1.327120382E1
3.180364250E0,-3.046165466E-1,1.930086365E0,1.292232788E1,1.306922272E1
3.190293250E0,-5.191204834E-1,1.694027252E0,1.286275177E1,1.298420569E1
3.200221250E0,-7.701484680E-1,1.467548218E0,1.282233582E1,1.292900314E1
3.210150250E0,-8.497828674E-1,1.379830627E0,1.274928772E1,1.285186371E1
3.220078250E0,-8.434959412E-1,1.477427673E0,1.281215698E1,1.292461390E1
3.230007250E0,-5.941145325E-1,1.550326080E0,1.295121780E1,1.305720206E1
3.239935250E0,-2.028282166E-1,1.563049622E0,1.300136353E1,1.309655363E1
3.249864250E0,9.639953613E-2,1.473835144E0,1.293714706E1,1.302118493E1
3.259792250E0,1.169068909E-1,1.356628876E0,1.275796967E1,1.283042864E1
3.269720250E0,-2.215393066E-2,1.085542603E0,1.255334518E1,1.260021305E1
3.279649250E0,-2.179467773E-1,7.933502197E-1,1.225022552E1,1.227782272E1
3.289577250E0,-4.108955383E-1,6.249504089E-1,1.192599976E1,1.194942962E1
3.299506250E0,-6.024971008E-1,5.224136353E-1,1.163231049E1,1.165961260E1
3.309434250E0,-7.267387390E-1,5.086422729E-1,1.126347748E1,1.129835347E1
3.319363250E0,-6.821315002E-1,5.689668274E-1,1.094987961E1,1.098584954E1
3.329291250E0,-5.596861267E-1,5.809419250E-1,1.095975906E1,1.098940675E1
3.339220250E0,-5.168751526E-1,5.740562439E-1,1.100541412E1,1.103249022E1
3.349148250E0,-4.409829712E-1,6.095324707E-1,1.096619568E1,1.099197177E1
3.359077250E0,-3.519181824E-1,7.463479614E-1,1.095571747E1,1.098674779E1
3.369005250E0,-2.242337036E-1,8.681945801E-1,1.082923050E1,1.086629080E1
3.378933250E0,-1.052311707E-1,9.044192505E-1,1.060784088E1,1.064684629E1
3.388862250E0,-1.182540894E-2,8.473878479E-1,1.041504181E1,1.044946419E1
3.398790250E0,-6.571334839E-2,7.066804504E-1,1.029918274E1,1.032360793E1
3.408719250E0,-2.013313293E-1,5.313949585E-1,1.028316605E1,1.029885522E1
3.418647250E0,-3.094065857E-1,2.821632385E-1,1.027702881E1,1.028555636E1
3.428576250E0,-4.246669006E-1,4.086502075E-2,1.023227188E1,1.024116203E1
3.438504250E0,-4.465214539E-1,-8.113128662E-2,1.014200958E1,1.015215849E1
3.448433250E0,-5.159770203E-1,-2.303709412E-1,9.926757202E0,9.942827144E0
3.458361250E0,-6.403683472E-1,-3.144960022E-1,9.521849213E0,9.548538725E0
3.468290250E0,-7.481442261E-1,-3.152444458E-1,9.086404724E0,9.122601036E0
3.478218250E0,-7.470964050E-1,-3.007246399E-1,8.734037476E0,8.771088813E0
3.488146250E0,-6.911128235E-1,-2.514770508E-1,8.587192841E0,8.618628576E0
3.498075250E0,-5.519023132E-1,-2.125579834E-1,8.575966187E0,8.596334864E0
3.508003250E0,-4.719685364E-1,-2.357597351E-1,8.621621246E0,8.637747963E0
3.517931833E0,-5.110372925E-1,-2.740800476E-1,8.710835724E0,8.730116723E0
3.527859833E0,-5.514532471E-1,-3.059637451E-1,8.835825806E0,8.858303007E0
3.537788833E0,-4.815486145E-1,-2.784210205E-1,8.897946625E0,8.915316117E0
3.547716833E0,-3.435356140E-1,-1.181044006E-1,8.844358063E0,8.851815345E0
3.557645833E0,-2.408491516E-1,7.065307617E-2,8.609346771E0,8.613004818E0
3.567573833E0,-1.378633118E-1,1.615141296E-1,8.321345673E0,8.324054716E0
3.577502833E0,-1.065783691E-1,1.420545959E-1,8.081993408E0,8.083944329E0
3.587430833E0,-1.660047913E-1,2.903961182E-2,7.920479279E0,7.922271953E0
3.597358833E0,-4.677772522E-1,-8.577163696E-2,7.695497131E0,7.710178236E0
3.607287833E0,-6.096821594E-1,-1.950444031E-1,7.461533661E0,7.488941129E0
3.617215833E0,-6.303392029E-1,-2.701881409E-1,7.309749298E0,7.341850172E0
3.627144833E0,-5.529501343E-1,-2.652484131E-1,7.279811554E0,7.305598321E0
3.637072833E0,-4.114942932E-1,-2.263293457E-1,7.254663849E0,7.269848698E0
3.647001833E0,-3.267704773E-1,-1.791773987E-1,7.233707428E0,7.243300811E0
3.656929833E0,-2.920426941E-1,-2.008822632E-1,7.248676300E0,7.257337716E0
3.666858833E0,-3.465293884E-1,-2.275268555E-1,7.235952759E0,7.247817838E0
3.676786833E0,-4.376898193E-1,-2.656974792E-1,7.214696960E0,7.232843131E0
3.686715833E0,-5.414241028E-1,-3.677851868E-1,7.249424744E0,7.278912358E0
3.696643833E0,-6.339317322E-1,-4.062551880E-1,7.273674316E0,7.312540652E0
3.706571833E0,-6.463558960E-1,-3.812571716E-1,7.358697510E0,7.396861633E0
3.716500833E0,-5.777984619E-1,-3.444337463E-1,7.489974518E0,7.520119942E0
3.726428833E0,-4.373904419E-1,-2.240840149E-1,7.683072968E0,7.698774855E0
3.736357833E0,-2.133064270E-1,-6.825805664E-2,7.855065308E0,7.858257426E0
3.746285833E0,-3.382965088E-2,5.433700562E-2,7.978558502E0,7.978815246E0
3.756214833E0,3.053649902E-2,7.020401001E-2,8.111182709E0,8.111543997E0
3.766142833E0,-5.987548828E-3,7.439529419E-2,8.223898315E0,8.224236987E0
3.776071833E0,-4.176315308E-2,1.294807434E-1,8.297245789E0,8.298361109E0
3.785999833E0,-1.841171265E-2,1.588197327E-1,8.308472443E0,8.310010652E0
3.795927833E0,-8.846603394E-2,9.969268799E-2,8.302335205E0,8.303405008E0
3.805856833E0,-2.636018372E-1,8.023315430E-2,8.261470184E0,8.266063930E0
3.815784833E0,-3.444337463E-1,8.277786255E-2,8.268655243E0,8.276239865E0
3.825713833E0,-3.252735901E-1,9.370513916E-2,8.300988007E0,8.307886942E0
3.835641833E0,-2.748284912E-1,2.106120300E-1,8.307574310E0,8.314786771E0
3.845570833E0,-1.965412903E-1,3.028202820E-1,8.381670227E0,8.389441245E0
3.855498833E0,-1.438508606E-1,3.354524231E-1,8.498876495E0,8.506710474E0
3.865427833E0,-2.134561157E-1,2.607577515E-1,8.683891754E0,8.690427729E0
3.875355833E0,-3.505709839E-1,1.408570862E-1,8.917256470E0,8.925256505E0
3.885284833E0,-4.552033997E-1,3.143463135E-2,9.123976593E0,9.135378872E0
3.895212833E0,-5.770500183E-1,-1.017883301E-2,9.322613525E0,9.340461085E0
3.905140833E0,-6.090834045E-1,-2.784210205E-2,9.551038513E0,9.570480367E0
3.915069833E0,-5.993536377E-1,4.191284180E-2,9.740394745E0,9.758907278E0
3.924997833E0,-4.644841003E-1,2.938389587E-1,9.915081482E0,9.930303500E0
3.934926833E0,-2.309696960E-1,5.879772949E-1,1.008437943E1,1.010414631E1
3.944854833E0,-3.382965088E-2,8.159532166E-1,1.026205994E1,1.029450330E1
3.954783833E0,-2.245330811E-2,9.419911194E-1,1.043689636E1,1.047934431E1
3.964711833E0,-1.610650635E-1,9.473799133E-1,1.054287598E1,1.058658134E1
3.974640833E0,-4.203259277E-1,8.351133728E-1,1.064750839E1,1.068847619E1
3.984568833E0,-5.619314575E-1,7.688012695E-1,1.076830719E1,1.081033127E1
3.994497833E0,-5.869294739E-1,6.972500610E-1,1.086246140E1,1.090062895E1
4.004425833E0,-5.622308350E-1,6.373745728E-1,1.097308136E1,1.100594677E1
4.014353833E0,-5.763015747E-1,5.804928589E-1,1.108415039E1,1.111429194E1
4.024282833E0,-5.391787720E-1,6.265969849E-1,1.127275818E1,1.130302678E1
4.034210833E0,-5.578898621E-1,7.149133301E-1,1.140628052E1,1.144227151E1
4.044139833E0,-5.544470215E-1,9.027726746E-1,1.151749924E1,1.156612289E1
4.054067833E0,-5.092410278E-1,1.059197388E0,1.169308411E1,1.175199734E1
4.063996833E0,-4.420307922E-1,1.183439026E0,1.190743835E1,1.197426437E1
4.073924833E0,-3.667373657E-1,1.257385254E0,1.218226685E1,1.225247483E1
4.083853833E0,-2.829116821E-1,1.289867706E0,1.239976456E1,1.246988207E1
4.093781833E0,-2.501298523E-1,1.292113037E0,1.263372803E1,1.270209451E1
4.103709833E0,-2.942880249E-1,1.301543427E0,1.282982025E1,1.289902742E1
4.113638833E0,-3.439846802E-1,1.366208954E0,1.291199936E1,1.298863272E1
4.123566833E0,-4.225712585E-1,1.554068298E0,1.289837769E1,1.299853229E1
4.133495833E0,-4.477189636E-1,1.788181458E0,1.287802002E1,1.300928302E1
4.143423833E0,-4.709207153E-1,2.062710571E0,1.295106812E1,1.312275530E1
4.153352833E0,-4.668791199E-1,2.280507660E0,1.306093964E1,1.326675678E1
4.163280833E0,-4.200265503E-1,2.437980194E0,1.317619995E1,1.340643185E1
4.173209833E0,-3.535647583E-1,2.533331909E0,1.321556808E1,1.346083275E1
4.183137833E0,-3.894900513E-1,2.627336426E0,1.315778824E1,1.342318854E1
4.193066833E0,-4.090992737E-1,2.689606934E0,1.312321014E1,1.340223833E1
4.202994833E0,-4.381388855E-1,2.739153900E0,1.318098999E1,1.346972260E1
4.212922833E0,-5.025050354E-1,2.757116547E0,1.322125626E1,1.351502201E1
4.222851833E0,-4.917274475E-1,2.831511841E0,1.323847046E1,1.354682086E1
4.232779833E0,-4.361929321E-1,2.850073242E0,1.335612579E1,1.366379442E1
4.242708833E0,-4.233197021E-1,2.819536743E0,1.346390167E1,1.376247199E1
4.252636833E0,-4.875361633E-1,2.890040131E0,1.345102844E1,1.376663320E1
4.262565833E0,-5.450166321E-1,2.974165192E0,1.330238754E1,1.364170869E1
4.272493833E0,-6.138734436E-1,3.052602081E0,1.304252792E1,1.340905495E1
4.282422833E0,-7.210505676E-1,3.170407104E0,1.275332932E1,1.316126148E1
4.292350833E0,-8.970845032E-1,3.154091034E0,1.251367767E1,1.293619650E1
4.302279833E0,-1.026265869E0,3.089126129E0,1.232417175E1,1.274680867E1
4.312207833E0,-1.119222565E0,2.967279510E0,1.225157272E1,1.265537202E1
4.322135833E0,-1.145867157E0,2.857707367E0,1.212598389E1,1.251075490E1
4.332064833E0,-1.121617584E0,2.779270477E0,1.197659454E1,1.234589759E1
4.341992833E0,-1.095721436E0,2.838098145E0,1.190130112E1,1.228398855E1
4.351921833E0,-1.083896027E0,2.913541260E0,1.188468567E1,1.228451492E1
4.361849833E0,-1.127605133E0,2.940036163E0,1.199335968E1,1.239983800E1
4.371778833E0,-1.228645020E0,2.977158966E0,1.213032486E1,1.255061055E1
4.381706833E0,-1.244661713E0,2.982547760E0,1.228600113E1,1.270395992E1
4.391635833E0,-1.177900543E0,3.002156982E0,1.245499969E1,1.286574575E1
4.401563833E0,-9.961784363E-1,3.069816284E0,1.261890884E1,1.302509132E1
4.411491833E0,-8.349636841E-1,3.274440765E0,1.271441025E1,1.315581068E1
4.421420833E0,-6.396199036E-1,3.495081940E0,1.272473877E1,1.321149833E1
4.431348833E0,-4.432283020E-1,3.746409302E0,1.260798157E1,1.316029001E1
4.441277833E0,-4.291575623E-1,3.854783936E0,1.232042953E1,1.291652118E1
4.451205833E0,-6.300398254E-1,3.802991638E0,1.193857361E1,1.254548665E1
4.461134833E0,-9.912387085E-1,3.649411011E0,1.159309204E1,1.219428300E1
4.471062833E0,-1.309626617E0,3.330873413E0,1.131033005E1,1.186311112E1
4.480991833E0,-1.501677246E0,3.021766205E0,1.103490280E1,1.153928877E1
4.490919833E0,-1.557810516E0,2.867736511E0,1.083836151E1,1.131904442E1
4.500848833E0,-1.502126312E0,2.867886200E0,1.066262695E1,1.114328355E1
4.510777458E0,-1.349443817E0,3.045866089E0,1.036908737E1,1.089110976E1
4.520705458E0,-1.152752838E0,3.283272400E0,9.979447632E0,1.056873180E1
4.530634458E0,-1.106499023E0,3.493135986E0,9.694589996E0,1.036394781E1
4.540562458E0,-1.120420074E0,3.596271515E0,9.465416565E0,1.018737556E1
4.550491458E0,-1.218615875E0,3.565735016E0,9.325756989E0,1.005829182E1
4.560419458E0,-1.361568604E0,3.429069214E0,9.272168427E0,9.979253082E0
4.570348458E0,-1.362017670E0,3.279230804E0,9.387578430E0,1.003668648E1
4.580276458E0,-1.272204437E0,3.195255432E0,9.487271118E0,1.009140598E1
4.590205458E0,-1.223106537E0,3.142265625E0,9.511820068E0,1.009180578E1
4.600133458E0,-1.113983459E0,3.209326172E0,9.513915710E0,1.010224360E1
4.610061458E0,-1.004261627E0,3.361110535E0,9.532327423E0,1.015730631E1
4.619990458E0,-9.379495239E-1,3.433709564E0,9.442963257E0,1.009156409E1
4.629918458E0,-8.746311951E-1,3.498075714E0,9.280850372E0,9.956691070E0
4.639847458E0,-8.810678101E-1,3.506308594E0,9.057215424E0,9.752109088E0
4.649775458E0,-9.050180054E-1,3.359763336E0,8.791967010E0,9.455461447E0
4.659704458E0,-9.761201477E-1,3.152893524E0,8.532257080E0,9.148385595E0
4.669632458E0,-1.161434784E0,2.929408264E0,8.293952637E0,8.872429987E0
4.679561458E0,-1.356179810E0,2.781515808E0,7.996820526E0,8.574683224E0
4.689489458E0,-1.457219696E0,2.756667480E0,7.757019196E0,8.360266242E0
4.699418458E0,-1.384171600E0,2.730022888E0,7.612270203E0,8.204609292E0
4.709346458E0,-1.260977783E0,2.708168335E0,7.513924713E0,8.085994391E0
4.719274458E0,-1.165476379E0,2.720293121E0,7.377109222E0,7.948589204E0
4.729203458E0,-1.118923187E0,2.723137207E0,7.256011047E0,7.830527547E0
4.739131458E0,-1.062939606E0,2.752176819E0,7.209607544E0,7.789913914E0
4.749060458E0,-1.040336609E0,2.763253784E0,7.178322601E0,7.761841734E0
4.758988458E0,-1.082099762E0,2.778522034E0,7.172335052E0,7.767465139E0
4.768917458E0,-1.058299255E0,2.834056549E0,7.241640930E0,7.848135906E0
4.778845458E0,-9.770182800E-1,2.871179352E0,7.345524902E0,7.947010235E0
4.788774458E0,-8.972341919E-1,2.878514099E0,7.460635529E0,8.046859953E0
4.798702458E0,-8.409512329E-1,2.840493164E0,7.571105804E0,8.130021125E0
4.808630458E0,-8.749305725E-1,2.758763123E0,7.706125031E0,8.231685153E0
4.818559458E0,-1.025068359E0,2.647245026E0,7.698939972E0,8.205629047E0
4.828487458E0,-1.216520233E0,2.524051208E0,7.622898102E0,8.121535043E0
4.838416458E0,-1.329385529E0,2.428699493E0,7.628286896E0,8.115208443E0
4.848344458E0,-1.349144440E0,2.405797119E0,7.607031097E0,8.091660683E0
4.858273458E0,-1.317410431E0,2.393223267E0,7.583679657E0,8.060724843E0
4.868201458E0,-1.224453735E0,2.439926147E0,7.563321991E0,8.040918237E0
4.878130458E0,-1.116677856E0,2.529739380E0,7.527995453E0,8.019804630E0
4.888058458E0,-1.088087311E0,2.553539886E0,7.412585449E0,7.915233603E0
4.897987458E0,-1.093176727E0,2.525248718E0,7.251221008E0,7.755779945E0
4.907915458E0,-1.127904510E0,2.468516693E0,7.141050110E0,7.639393950E0
4.917843458E0,-1.279688873E0,2.442470856E0,7.040608978E0,7.561312206E0
4.927772458E0,-1.401535492E0,2.420167236E0,6.999294891E0,7.537349678E0
4.937700458E0,-1.441502380E0,2.317929840E0,7.025789795E0,7.537403406E0
4.947629458E0,-1.503024445E0,2.317780151E0,7.065756683E0,7.586573984E0
4.957557458E0,-1.637893982E0,2.378104706E0,7.315138092E0,7.864434118E0
4.967486458E0,-1.617536316E0,2.367027740E0,7.627239075E0,8.148252571E0
4.977414458E0,-1.523531799E0,2.475252686E0,7.840246124E0,8.361667554E0
4.987343458E0,-1.464255066E0,2.612816620E0,7.944579163E0,8.490417637E0
4.997271458E0,-1.389410706E0,2.681823120E0,8.105943604E0,8.650373348E0
5.007199458E0,-1.322499847E0,2.660267944E0,8.312813416E0,8.827734605E0
5.017128458E0,-1.319356384E0,2.628533936E0,8.543184357E0,9.035258207E0
5.027056458E0,-1.328637085E0,2.574346619E0,8.789122925E0,9.254254092E0
5.036985458E0,-1.301842804E0,2.613415375E0,9.001381531E0,9.463065258E0
5.046913458E0,-1.211580505E0,2.641856232E0,9.184899902E0,9.633780041E0
5.056842458E0,-1.044976959E0,2.717299347E0,9.372160492E0,9.813923011E0
5.066770458E0,-9.026229858E-1,2.834056549E0,9.488768005E0,9.944009405E0
5.076699458E0,-7.758366394E-1,2.912194061E0,9.549841003E0,1.001410305E1
5.086627458E0,-7.149133301E-1,2.882705383E0,9.618099060E0,1.006622675E1
5.096556458E0,-7.668553162E-1,2.801723785E0,9.602980499E0,1.003269444E1
5.106484458E0,-9.151968384E-1,2.702180786E0,9.571096802E0,9.987254890E0
5.116412458E0,-1.084794159E0,2.583028564E0,9.641300812E0,1.004009444E1
5.126341458E0,-1.149759064E0,2.498304749E0,9.792935486E0,1.017177752E1
5.136269458E0,-1.165476379E0,2.445015564E0,9.976004791E0,1.033717117E1
5.146198458E0,-1.194366302E0,2.420616302E0,1.022269180E1,1.057304695E1
5.156126458E0,-1.161434784E0,2.388882294E0,1.048195267E1,1.081327985E1
5.166055458E0,-1.173260193E0,2.352058868E0,1.075229050E1,1.106889657E1
5.175983458E0,-1.219514008E0,2.315684509E0,1.097891922E1,1.128655290E1
5.185912458E0,-1.200204163E0,2.337239685E0,1.117186798E1,1.147666387E1
5.195840458E0,-1.095571747E0,2.410736847E0,1.143502075E1,1.173761599E1
5.205769458E0,-1.015039215E0,2.457140350E0,1.166479294E1,1.196391398E1
5.215697458E0,-9.421408081E-1,2.483186188E0,1.182136734E1,1.211604592E1
5.225625458E0,-8.994795227E-1,2.453547821E0,1.189651108E1,1.218014516E1
5.235554458E0,-8.705895996E-1,2.403102722E0,1.197105606E1,1.224087465E1
5.245482458E0,-8.960366821E-1,2.304457855E0,1.206835373E1,1.231903281E1
5.255411458E0,-9.803114319E-1,2.261197815E0,1.219349350E1,1.244006872E1
5.265339458E0,-1.062490540E0,2.143093414E0,1.226818817E1,1.249920704E1
5.275268458E0,-1.132694550E0,2.108964386E0,1.230770599E1,1.253835534E1
5.285196458E0,-1.163979492E0,2.109263763E0,1.233494934E1,1.256800768E1
5.295125458E0,-1.140178986E0,1.980082397E0,1.248718277E1,1.269450542E1
5.305053458E0,-1.210233307E0,1.838626556E0,1.266366577E1,1.285354593E1
5.314981458E0,-1.341959381E0,1.732497253E0,1.273940826E1,1.292652021E1
5.324910458E0,-1.420695648E0,1.663790131E0,1.278715897E1,1.297297222E1
5.334838458E0,-1.399439850E0,1.677711182E0,1.290167084E1,1.308534513E1
5.344767458E0,-1.256187744E0,1.818119202E0,1.294358368E1,1.313087672E1
5.354695458E0,-1.038390656E0,1.967508545E0,1.293190796E1,1.312187443E1
5.364624458E0,-8.812174988E-1,1.977537689E0,1.290526337E1,1.308560362E1
5.374552458E0,-8.764274597E-1,1.927841034E0,1.294253586E1,1.311464565E1
5.384481458E0,-8.653504944E-1,1.770817566E0,1.301992493E1,1.316826000E1
5.394409458E0,-8.906478882E-1,1.530716858E0,1.309312271E1,1.321235066E1
5.404337458E0,-7.340734863E-1,1.403930511E0,1.330104034E1,1.339505726E1
5.414266458E0,-6.198609924E-1,1.248254242E0,1.344264587E1,1.351469920E1
5.424194458E0,-5.409750366E-1,1.099014587E0,1.332199677E1,1.337819438E1
5.434123458E0,-4.701722717E-1,1.016236725E0,1.318817505E1,1.323562466E1
5.444051458E0,-4.986131287E-1,8.330177307E-1,1.303624100E1,1.307234152E1
5.453980458E0,-7.740403748E-1,7.556286621E-1,1.279943344E1,1.284506168E1
5.463908458E0,-9.422904968E-1,6.888674927E-1,1.250035538E1,1.255473354E1
5.473837458E0,-9.415420532E-1,6.879693604E-1,1.229947311E1,1.235462837E1
5.483765458E0,-7.818241882E-1,8.165519714E-1,1.217089050E1,1.222328032E1
5.493694458E0,-5.242098999E-1,8.734336853E-1,1.216220856E1,1.220479412E1
5.503622458E0,-2.191442871E-1,8.116122437E-1,1.225606339E1,1.228486176E1
5.513550583E0,-5.044509888E-2,7.469467163E-1,1.243763580E1,1.246014681E1
5.523479583E0,3.742218018E-2,7.759863281E-1,1.264914597E1,1.267298106E1
5.533407583E0,1.163081360E-1,8.695417786E-1,1.286454803E1,1.289442618E1
5.543336583E0,2.059716797E-1,8.997789001E-1,1.295496002E1,1.298780257E1
5.553264583E0,3.793112183E-1,8.967851257E-1,1.300211197E1,1.303852048E1
5.563193583E0,5.981561279E-1,8.840615845E-1,1.315554291E1,1.319877513E1
5.573121583E0,5.828878784E-1,8.258326721E-1,1.331406326E1,1.335237951E1
5.583050583E0,3.788621521E-1,6.890171814E-1,1.330418381E1,1.332739990E1
5.592978583E0,1.829196167E-1,6.170169067E-1,1.312665298E1,1.314241941E1
5.602906583E0,-3.293151855E-3,4.656816101E-1,1.296169601E1,1.297005913E1
5.612835583E0,-2.296224976E-1,3.342549133E-1,1.270767426E1,1.271414322E1
5.622763583E0,-3.688330078E-1,2.290237427E-1,1.231384323E1,1.232149442E1
5.632692583E0,-5.267546082E-1,1.369651794E-1,1.200608322E1,1.201841355E1
5.642620583E0,-6.786886597E-1,4.191284180E-3,1.180520096E1,1.182469473E1
5.652549583E0,-8.520281982E-1,-1.469943237E-1,1.162153290E1,1.165365120E1
5.662477583E0,-8.988807678E-1,-1.962419128E-1,1.144340332E1,1.148033001E1
5.672406583E0,-8.138575745E-1,-3.218307495E-1,1.136900803E1,1.140264367E1
5.682334583E0,-6.885681152E-1,-5.123844910E-1,1.134909943E1,1.138150788E1
5.692263583E0,-6.661148071E-1,-5.179229736E-1,1.128443390E1,1.131593574E1
5.702191583E0,-5.771997070E-1,-4.022135925E-1,1.113878677E1,1.116098141E1
5.712119583E0,-3.888912964E-1,-3.270698547E-1,1.094508957E1,1.095687897E1
5.722048583E0,-2.673440552E-1,-3.861968994E-1,1.072744217E1,1.073772026E1
5.731976583E0,-1.658551025E-1,-5.700146484E-1,1.052551208E1,1.054224024E1
5.741905583E0,-2.314187622E-1,-7.720944214E-1,1.038465500E1,1.041588901E1
5.751833583E0,-3.607498169E-1,-1.015937347E0,1.015712814E1,1.021418236E1
5.761762583E0,-4.340972900E-1,-1.189127197E0,9.974058838E0,1.005406951E1
5.771690583E0,-4.258644104E-1,-1.197210388E0,9.746382294E0,9.828867739E0
5.781619583E0,-2.643502808E-1,-1.007405090E0,9.419761505E0,9.477164813E0
5.791547583E0,4.939727783E-3,-8.898994446E-1,9.262887726E0,9.305537837E0
5.801475583E0,2.538720703E-1,-8.720864868E-1,9.058862000E0,9.104282871E0
5.811404583E0,2.874023438E-1,-9.174421692E-1,8.811875610E0,8.864166741E0
5.821332583E0,1.814227295E-1,-1.022673340E0,8.588390350E0,8.650966638E0
5.831261583E0,1.302291870E-2,-1.217418365E0,8.417296143E0,8.504889854E0
5.841189583E0,-1.871109009E-1,-1.309626617E0,8.348589020E0,8.452755231E0
5.851118583E0,-3.927832031E-1,-1.483415222E0,8.272996216E0,8.414111109E0
5.861046583E0,-5.983058167E-1,-1.606459351E0,8.180488586E0,8.358174143E0
5.870975583E0,-7.035369873E-1,-1.655557251E0,8.176297302E0,8.371838011E0
5.880903583E0,-7.981402588E-1,-1.630409546E0,8.261021118E0,8.458116402E0
5.890832583E0,-7.282356262E-1,-1.482666779E0,8.377628632E0,8.538927883E0
5.900760583E0,-5.694158936E-1,-1.193617859E0,8.513545990E0,8.615649910E0
5.910688583E0,-3.583547974E-1,-8.232879639E-1,8.601113892E0,8.647854151E0
5.920617583E0,-1.739382935E-1,-5.722599792E-1,8.663234711E0,8.683856958E0
5.930545583E0,-2.080673218E-2,-4.355941772E-1,8.636141052E0,8.647144470E0
5.940474583E0,1.375639343E-1,-4.565505981E-1,8.683742065E0,8.696823474E0
5.950402583E0,4.101470947E-2,-7.050338745E-1,8.755592651E0,8.784028555E0
5.960331583E0,-1.924996948E-1,-9.654922485E-1,8.696615295E0,8.752162533E0
5.970259583E0,-3.643423462E-1,-1.164278870E0,8.504864044E0,8.591914981E0
5.980188583E0,-4.703219604E-1,-1.267414398E0,8.324788513E0,8.433839327E0
5.990116583E0,-4.165837097E-1,-1.276994476E0,8.039182434E0,8.150626423E0
6.000044583E0,-3.375480652E-1,-1.133892059E0,7.836952972E0,7.925748027E0
6.009973583E0,-1.682501221E-1,-1.081351318E0,7.802973633E0,7.879341742E0
6.019901583E0,3.382965088E-2,-1.095422058E0,7.729775848E0,7.807081951E0
6.029830583E0,9.400451660E-2,-1.108444977E0,7.585326233E0,7.666463407E0
6.039758583E0,9.235794067E-2,-1.095571747E0,7.460934906E0,7.541508941E0
6.049687583E0,7.080276489E-2,-1.116677856E0,7.444020081E0,7.527643551E0
6.059615583E0,7.574249268E-2,-1.245410156E0,7.464527435E0,7.568087818E0
6.069544583E0,4.775070190E-2,-1.263971558E0,7.589966583E0,7.694640795E0
6.079472583E0,7.035369873E-3,-1.184486847E0,7.920179901E0,8.008264996E0
6.089400583E0,8.367599487E-2,-1.053209839E0,8.160130920E0,8.228243389E0
6.099329583E0,2.760260010E-1,-5.739065552E-1,8.196804657E0,8.221506290E0
6.109257583E0,6.059399414E-1,-1.317260742E-1,8.123906250E0,8.147537526E0
6.119186583E0,8.027806091E-1,2.155517578E-1,8.140222321E0,8.182550867E0
6.129114583E0,7.161108398E-1,3.912863159E-1,8.144413605E0,8.185193503E0
6.139043583E0,5.093907166E-1,3.739224243E-1,7.976013794E0,8.001005744E0
6.148971583E0,1.592687988E-1,3.118016052E-1,7.856562195E0,7.864359879E0
6.158900583E0,-2.697390747E-1,7.918533325E-2,7.868836670E0,7.873856744E0
6.168828583E0,-5.486091614E-1,-4.695735168E-1,7.886499939E0,7.919491940E0
6.178757583E0,-1.109343109E0,-8.812174988E-1,8.072563019E0,8.195941685E0
6.188685583E0,-1.971849518E0,-9.774673462E-1,8.233179016E0,8.522257309E0
6.198613583E0,-2.320175171E0,-9.119036865E-1,8.416697388E0,8.778130557E0
6.208542583E0,-2.318378906E0,-7.905061340E-1,8.960666199E0,9.289419757E0
6.218470583E0,-1.778002625E0,-9.187893677E-1,9.455686798E0,9.665168393E0
6.228399583E0,-7.090754700E-1,-8.053253174E-1,9.875413971E0,9.933536026E0
6.238327583E0,2.764750671E-1,-5.644761658E-1,1.018646713E1,1.020584070E1
6.248256583E0,7.797285461E-1,-4.550537109E-1,1.018856277E1,1.022848287E1
6.258184583E0,6.448590088E-1,-2.480342102E-1,9.885143738E0,9.909259853E0
6.268113583E0,5.484594727E-1,6.331832886E-2,9.649234314E0,9.665016288E0
6.278041583E0,6.879693604E-1,3.412902832E-1,9.812993774E0,9.842998919E0
6.287969583E0,9.518705750E-1,6.228547668E-1,1.024739044E1,1.031033542E1
6.297898583E0,1.456022186E0,9.948312378E-1,1.069840256E1,1.084276289E1
6.307826583E0,2.049238586E0,1.267264709E0,1.104223755E1,1.130205064E1
6.317755583E0,2.301613770E0,1.369651794E0,1.125748993E1,1.157170910E1
6.327683583E0,2.030377808E0,1.232985992E0,1.123608444E1,1.148443652E1
6.337612583E0,1.626667328E0,1.050365753E0,1.108519821E1,1.125304111E1
6.347540583E0,1.363215179E0,9.469308472E-1,1.107561813E1,1.119930135E1
6.357469583E0,1.118174744E0,8.963360596E-1,1.130045059E1,1.139095767E1
6.367397583E0,9.346563721E-1,9.833052063E-1,1.157138718E1,1.165064259E1
6.377326583E0,9.128018188E-1,1.150806885E0,1.182301392E1,1.191390875E1
6.387254583E0,8.530760193E-1,1.327439575E0,1.194126801E1,1.204507020E1
6.397182583E0,5.182223511E-1,1.343605957E0,1.168245621E1,1.177087993E1
6.407111583E0,1.661544800E-2,1.313219147E0,1.122425903E1,1.130083233E1
6.417039583E0,-3.610491943E-1,1.285676422E0,1.086111420E1,1.094290281E1
6.426968583E0,-6.839277649E-1,1.239572296E0,1.058748322E1,1.068171791E1
6.436896583E0,-8.620573425E-1,1.091679840E0,1.051009415E1,1.060174451E1
6.446825583E0,-9.154962158E-1,8.740324402E-1,1.080587906E1,1.087975589E1
6.456753583E0,-7.499404907E-1,6.158193970E-1,1.140912460E1,1.145031740E1
6.466682583E0,-5.342390442E-1,3.718267822E-1,1.197689392E1,1.199456771E1
6.476610583E0,-2.218386841E-1,3.510200500E-1,1.225351868E1,1.226055249E1
6.486538583E0,1.143621826E-1,6.906637573E-1,1.232312393E1,1.234299310E1
6.496467583E0,4.225712585E-1,1.031954041E0,1.227716949E1,1.232770808E1
6.506395583E0,6.653663635E-1,1.218615875E0,1.222627533E1,1.230485861E1
6.516324333E0,7.843688965E-1,1.194216614E0,1.225127335E1,1.233430527E1
6.526252333E0,7.057823181E-1,1.119222565E0,1.227193039E1,1.234305729E1
6.536181333E0,4.502636719E-1,1.043330383E0,1.224588455E1,1.229849438E1
6.546109333E0,2.513273621E-1,9.836045837E-1,1.231369354E1,1.235547215E1
6.556038333E0,2.362088013E-1,9.800120544E-1,1.247550705E1,1.251616932E1
6.565966333E0,4.107458496E-1,9.928852844E-1,1.272878036E1,1.277405116E1
6.575894333E0,6.484515381E-1,1.150956573E0,1.283655624E1,1.290435456E1
6.585823333E0,8.873547363E-1,1.327888641E0,1.294567932E1,1.304382228E1
6.595751333E0,1.036444702E0,1.440155182E0,1.312590454E1,1.324528726E1
6.605680333E0,1.074166260E0,1.386566620E0,1.316781738E1,1.328411889E1
6.615608333E0,9.110055542E-1,1.335971832E0,1.307276505E1,1.317239302E1
6.625537333E0,6.054908752E-1,1.311572571E0,1.296244446E1,1.304269175E1
6.635465333E0,4.293072510E-1,1.303339691E0,1.289673111E1,1.296952861E1
6.645394333E0,4.558021545E-1,1.373394012E0,1.280886383E1,1.289034365E1
6.655322333E0,6.382727051E-1,1.523082733E0,1.278626083E1,1.289246443E1
6.665250333E0,7.303312683E-1,1.645827484E0,1.273282196E1,1.285950570E1
6.675179333E0,8.265811157E-1,1.710193634E0,1.268132904E1,1.282279630E1
6.685107333E0,1.006057892E0,1.729204102E0,1.265543289E1,1.281258292E1
6.695036333E0,1.035247192E0,1.682950287E0,1.260558655E1,1.275950119E1
6.704964333E0,9.015751648E-1,1.613345032E0,1.255574020E1,1.269103353E1
6.714893333E0,5.995033264E-1,1.506467285E0,1.250888763E1,1.261352916E1
6.724821333E0,3.878434753E-1,1.401685181E0,1.240709930E1,1.249204775E1
6.734750333E0,2.839595032E-1,1.372944946E0,1.238419693E1,1.246330391E1
6.744678333E0,2.636018372E-1,1.280886383E0,1.251472549E1,1.258286573E1
6.754607333E0,2.944377136E-1,1.085542603E0,1.266546204E1,1.271530672E1
6.764535333E0,3.362008667E-1,8.978329468E-1,1.285975800E1,1.289544535E1
6.774463333E0,3.493734741E-1,8.057743835E-1,1.298983749E1,1.301949355E1
6.784392333E0,2.951861572E-1,9.074130249E-1,1.291619064E1,1.295139043E1
6.794320333E0,3.200344849E-1,1.219064941E0,1.263851807E1,1.270120783E1
6.804249333E0,3.929328918E-1,1.610051880E0,1.232881210E1,1.243970543E1
6.814177333E0,4.887336731E-1,2.000889130E0,1.204410416E1,1.221895506E1
6.824106333E0,6.921606445E-1,2.393522644E0,1.179741714E1,1.205765683E1
6.834034333E0,8.141569519E-1,2.716550903E0,1.152169052E1,1.186557427E1
6.843963333E0,8.693920898E-1,2.843187561E0,1.128488297E1,1.166996751E1
6.853891333E0,6.746470642E-1,2.709665222E0,1.110690308E1,1.145254252E1
6.863819333E0,2.986289978E-1,2.434387665E0,1.098954712E1,1.125990979E1
6.873748333E0,-5.733078003E-2,2.068398743E0,1.095646591E1,1.115014374E1
6.883676333E0,-2.989283752E-1,1.722468109E0,1.085946762E1,1.099928596E1
6.893605333E0,-3.757186890E-1,1.593286743E0,1.070918015E1,1.083357127E1
6.903533333E0,-3.466790771E-1,1.646276550E0,1.063867676E1,1.077088000E1
6.913462333E0,-2.396516418E-1,1.847757568E0,1.067729645E1,1.083864846E1
6.923390333E0,6.601272583E-2,2.120340729E0,1.077504318E1,1.098188317E1
6.933319333E0,4.480183411E-1,2.612217865E0,1.080108902E1,1.112150739E1
6.943247333E0,6.704557800E-1,3.035238190E0,1.076411591E1,1.120394453E1
6.953175333E0,1.030008087E0,3.111280060E0,1.062745010E1,1.112131629E1
6.963104333E0,1.216819611E0,2.984493713E0,1.048270111E1,1.096699026E1
6.973032333E0,1.222657471E0,2.558479614E0,1.033361115E1,1.071560677E1
6.982961333E0,9.439370728E-1,1.972298584E0,1.005653732E1,1.029149755E1
6.992889333E0,4.093986511E-1,1.462458801E0,9.676327972E0,9.794780040E0
7.002818333E0,-2.200424194E-2,1.034798126E0,9.239386597E0,9.297180004E0
7.012746333E0,-2.609074402E-1,8.613088989E-1,8.848249969E0,8.893899776E0
7.022675333E0,-3.195854187E-1,1.018482056E0,8.398135986E0,8.465703077E0
7.032603333E0,-1.752854919E-1,1.410067749E0,7.945626984E0,8.071679145E0
7.042532333E0,-1.302291870E-2,1.817221069E0,7.571255493E0,7.786293839E0
7.052460333E0,1.282832336E-1,2.144141235E0,7.255561981E0,7.566834073E0
7.062388333E0,2.330653381E-1,2.477348328E0,6.981332245E0,7.411516316E0
7.072317333E0,3.713777161E-1,2.678529968E0,6.767127686E0,7.287418014E0
7.082245333E0,4.369413757E-1,2.683469696E0,6.686445465E0,7.218066246E0
7.092174333E0,3.857478333E-1,2.503992920E0,6.699767761E0,7.162797637E0
7.102102333E0,1.399589539E-1,2.184557190E0,6.732699280E0,7.079626983E0
7.112031333E0,-1.922003174E-1,1.882185974E0,6.853049011E0,7.109419509E0
7.121959333E0,-4.872367859E-1,1.678609314E0,6.927593994E0,7.144696457E0
7.131888333E0,-6.496490479E-1,1.661844177E0,6.868916016E0,7.096885034E0
7.141816333E0,-5.986051941E-1,1.895657959E0,6.785838776E0,7.071029286E0
7.151744333E0,-3.191363525E-1,2.307301941E0,6.761589203E0,7.151543806E0
7.161673333E0,-6.421646118E-2,2.750679932E0,6.773115234E0,7.310639768E0
7.171601333E0,1.490899658E-1,3.124452667E0,6.828200684E0,7.510576334E0
7.181530333E0,2.396516418E-1,3.448229370E0,6.952891388E0,7.764690422E0
7.191458333E0,2.228865051E-1,3.559298401E0,7.066505127E0,7.915413963E0
7.201387333E0,2.520758057E-1,3.301085358E0,7.191046143E0,7.916555525E0
7.211315333E0,-5.538482666E-3,3.007994843E0,7.342231750E0,7.934508852E0
7.221244333E0,-3.761677551E-1,2.504292297E0,7.446714478E0,7.865528501E0
7.231172333E0,-7.370672607E-1,1.994452515E0,7.572153625E0,7.865025080E0
7.241100333E0,-9.636959839E-1,1.558708649E0,7.702382813E0,7.917384896E0
7.251029333E0,-1.101559296E0,1.187330933E0,7.762557678E0,7.929721895E0
7.260957333E0,-1.260379028E0,9.153465271E-1,7.760611725E0,7.915396952E0
7.270886333E0,-1.467847595E0,8.008346558E-1,7.702532501E0,7.881936288E0
7.280814333E0,-1.526525574E0,9.464817810E-1,7.815697174E0,8.019428309E0
7.290743333E0,-1.278191986E0,1.323847046E0,7.981552277E0,8.190941490E0
7.300671333E0,-8.785231018E-1,1.759890289E0,8.037386169E0,8.274575101E0
7.310600333E0,-4.481680298E-1,2.094294891E0,8.114475861E0,8.392356294E0
7.320528333E0,-1.368154907E-1,2.253414001E0,8.226592712E0,8.530733896E0
7.330456333E0,9.400451660E-2,2.284998322E0,8.322094116E0,8.630602798E0
7.340385333E0,1.481918335E-1,2.284998322E0,8.334518280E0,8.643342705E0
7.350313333E0,4.625381470E-2,2.271226959E0,8.280330963E0,8.586296767E0
7.360242333E0,-1.463955688E-1,2.300266571E0,8.246651001E0,8.562704637E0
7.370170333E0,-2.606080627E-1,2.431244202E0,8.376880188E0,8.726453267E0
7.380099333E0,-1.697470093E-1,2.706521759E0,8.596024475E0,9.013640267E0
7.390027333E0,8.771759033E-2,2.982847137E0,8.876092072E0,9.364298259E0
7.399956333E0,3.406915283E-1,3.190764771E0,9.224866791E0,9.767047550E0
7.409884333E0,4.472698975E-1,3.316802673E0,9.641151123E0,1.020553895E1
7.419812333E0,5.748046875E-1,3.148552551E0,1.002465363E1,1.052318697E1
7.429741333E0,6.373745728E-1,2.999163208E0,1.038315811E1,1.082641209E1
7.439669333E0,5.545967102E-1,2.821632385E0,1.052057236E1,1.090649483E1
7.449598333E0,3.237767029E-1,2.415377197E0,1.047895889E1,1.075859925E1
7.459526333E0,3.113525391E-2,1.960173798E0,1.034453842E1,1.052866211E1
7.469455333E0,-9.669891357E-2,1.493144989E0,1.053778656E1,1.064348525E1
7.479383333E0,-3.421884155E-1,1.022373962E0,1.057101746E1,1.062585298E1
7.489312333E0,-5.237608337E-1,7.478448486E-1,1.051772827E1,1.055728210E1
7.499240333E0,-6.363267517E-1,6.730004883E-1,1.033870056E1,1.038010456E1
7.509169333E0,-7.295828247E-1,7.708969116E-1,1.014814682E1,1.020350219E1
7.519097000E0,-7.354206848E-1,9.312135315E-1,1.003423370E1,1.010415005E1
7.529025000E0,-6.411167908E-1,1.202150116E0,9.794132996E0,9.888439552E0
7.538954000E0,-4.614903259E-1,1.535506897E0,9.664951630E0,9.797042654E0
7.548882000E0,-3.299139404E-1,1.891466675E0,9.790540466E0,9.977032225E0
7.558811000E0,-2.242337036E-1,2.123484192E0,1.010548553E1,1.032861577E1
7.568739000E0,-1.139131165E-1,2.285297699E0,1.047731232E1,1.072425453E1
7.578668000E0,-4.116439819E-2,2.498304749E0,1.089075256E1,1.117370630E1
7.588596000E0,5.239105225E-2,2.520458679E0,1.144774429E1,1.172204360E1
7.598524000E0,1.092727661E-2,2.630180511E0,1.183678528E1,1.212548781E1
7.608453000E0,-1.957928467E-1,2.761906586E0,1.209170517E1,1.240466834E1
7.618381000E0,-4.546046448E-1,2.699785767E0,1.240036331E1,1.269899676E1
7.628310000E0,-7.316784668E-1,2.621049500E0,1.264660126E1,1.293606498E1
7.638238000E0,-8.563691711E-1,2.697690125E0,1.290870621E1,1.321535456E1
7.648167000E0,-9.741741943E-1,2.645748138E0,1.328786774E1,1.358368240E1
7.658095000E0,-1.217268677E0,2.493065643E0,1.337124435E1,1.365603511E1
7.668024000E0,-1.454674988E0,2.394420776E0,1.330328568E1,1.359509985E1
7.677952000E0,-1.655557251E0,2.306104431E0,1.334055817E1,1.363926243E1
7.687880000E0,-1.823957062E0,2.161355438E0,1.343576019E1,1.373018313E1
7.697809000E0,-1.970053253E0,2.065404968E0,1.347931961E1,1.377820978E1
7.707737000E0,-2.044149170E0,2.137554932E0,1.366942429E1,1.398573728E1
7.717666000E0,-1.939067688E0,2.210153961E0,1.375774063E1,1.406841112E1
7.727594000E0,-1.456321564E0,2.272574158E0,1.379201935E1,1.405365659E1
7.737523000E0,-1.036145325E0,2.336042175E0,1.359862152E1,1.383666135E1
7.747451000E0,-6.165678406E-1,2.466121674E0,1.342797638E1,1.366647217E1
7.757380000E0,-2.278262329E-1,2.483186188E0,1.340507401E1,1.363503310E1
7.767308000E0,-1.076261902E-1,2.420167236E0,1.328472427E1,1.350380287E1
7.777237000E0,3.742218018E-3,2.448009338E0,1.305285645E1,1.328043016E1
7.787165000E0,6.107299805E-2,2.517165527E0,1.286499710E1,1.310908092E1
7.797093000E0,1.197509766E-1,2.476300507E0,1.270108795E1,1.294078976E1
7.807022000E0,1.697470093E-1,2.224224701E0,1.264046402E1,1.283578280E1
7.816950000E0,1.612147522E-1,1.796564026E0,1.267638931E1,1.280408054E1
7.826879000E0,-1.140628052E-1,1.365011444E0,1.270527924E1,1.277890398E1
7.836807000E0,-5.387297058E-1,9.054670715E-1,1.267115021E1,1.271487900E1
7.846736000E0,-7.255412292E-1,5.435197449E-1,1.267369492E1,1.270607597E1
7.856664000E0,-6.875202942E-1,3.586541748E-1,1.265528320E1,1.267901849E1
7.866593000E0,-4.275109863E-1,4.065545654E-1,1.253553223E1,1.254940718E1
7.876521000E0,-8.831634521E-2,5.385800171E-1,1.233300339E1,1.234507354E1
7.886449000E0,8.202941895E-2,6.120771790E-1,1.212179260E1,1.213751306E1
7.896378000E0,4.909790039E-2,6.427633667E-1,1.197839081E1,1.199572431E1
7.906306000E0,5.912704468E-2,6.565347290E-1,1.191716812E1,1.193538562E1
7.916235000E0,2.128573608E-1,7.083270264E-1,1.190953400E1,1.193247818E1
7.926163000E0,4.492158508E-1,7.833210754E-1,1.201641174E1,1.205029203E1
7.936092000E0,7.318281555E-1,7.940986633E-1,1.214170120E1,1.218962974E1
7.946020000E0,9.214837646E-1,6.984475708E-1,1.222672440E1,1.228127643E1
7.955949000E0,7.797285461E-1,6.149212646E-1,1.213825836E1,1.217881032E1
7.965877000E0,5.310955811E-1,6.689588928E-1,1.189980423E1,1.193041949E1
7.975805000E0,3.549119568E-1,6.718029785E-1,1.173769135E1,1.176225658E1
7.985734000E0,2.406994629E-1,6.658154297E-1,1.167272644E1,1.169417757E1
7.995662000E0,6.361770630E-2,6.198609924E-1,1.158141632E1,1.159816705E1
8.005591000E0,-6.810836792E-2,5.426216125E-1,1.154444321E1,1.155738923E1
8.015519000E0,-1.639091492E-1,4.915777588E-1,1.157483002E1,1.158642330E1
8.025448000E0,-2.246827698E-1,5.113366699E-1,1.161928757E1,1.163270352E1
8.035376000E0,-1.704954529E-1,6.737489319E-1,1.154100037E1,1.156190710E1
8.045304000E0,6.286926270E-3,9.125024414E-1,1.136212234E1,1.139870714E1
8.055233000E0,1.179547119E-1,1.056053925E0,1.110001740E1,1.115076452E1
8.065161000E0,5.882766724E-2,1.118773499E0,1.077234879E1,1.083044843E1
8.075090000E0,-5.777984619E-2,1.022972717E0,1.051952454E1,1.056930500E1
8.085018000E0,-2.213896179E-1,7.391629028E-1,1.037642212E1,1.040507142E1
8.094947000E0,-4.258644104E-1,4.197271729E-1,1.025457550E1,1.027199348E1
8.104875000E0,-6.783892822E-1,9.789642334E-2,1.000699036E1,1.003043627E1
8.114804000E0,-7.408094788E-1,-5.807922363E-2,9.927056580E0,9.954829191E0
8.124732000E0,-7.512876892E-1,-1.441502380E-1,9.781259766E0,9.811129144E0
8.134661000E0,-6.599775696E-1,-3.517684937E-2,9.497150574E0,9.520119580E0
8.144589000E0,-5.617817688E-1,1.945953369E-1,9.181606750E0,9.200835213E0
8.154517000E0,-3.505709839E-1,3.492237854E-1,8.957971802E0,8.971628396E0
8.164446000E0,-1.998344421E-1,3.281176758E-1,8.788823547E0,8.797216285E0
8.174374000E0,-1.737886047E-1,1.233435059E-1,8.722212067E0,8.724815152E0
8.184303000E0,-2.775228882E-1,-1.802252197E-1,8.732540588E0,8.738807997E0
8.194231000E0,-4.123924255E-1,-4.403842163E-1,8.595126343E0,8.616275449E0
8.204160000E0,-5.619314575E-1,-4.972659302E-1,8.341403961E0,8.375085696E0
8.214088000E0,-5.776487732E-1,-4.026626587E-1,8.074359283E0,8.105004205E0
8.224017000E0,-4.135899353E-1,-1.992356873E-1,7.824828186E0,7.838283462E0
8.233945000E0,-1.752854919E-1,-1.736389160E-2,7.625143433E0,7.627177648E0
8.243873000E0,8.816665649E-2,9.250762939E-2,7.668852539E0,7.669917228E0
8.253802000E0,2.246827698E-1,4.161346436E-2,7.941136322E0,7.944423208E0
8.263730000E0,2.793191528E-1,-9.011260986E-2,8.155490570E0,8.160769934E0
8.273659000E0,3.604504395E-1,-9.430389404E-2,8.203540649E0,8.211997134E0
8.283587000E0,3.131488037E-1,-7.379653931E-2,8.089477844E0,8.095873016E0
8.293516000E0,2.574645996E-1,-6.840774536E-2,7.958949280E0,7.963406387E0
8.303444000E0,2.281256104E-1,-2.005828857E-2,7.887248383E0,7.890572266E0
8.313373000E0,1.950444031E-1,1.990859985E-2,7.827971649E0,7.830426477E0
8.323301000E0,1.393601990E-1,-4.670288086E-2,7.735014954E0,7.736411232E0
8.333229000E0,-1.152603149E-2,-1.517843628E-1,7.649692383E0,7.651206761E0
8.343158000E0,-2.197430420E-1,-2.302212524E-1,7.568860474E0,7.575548673E0
8.353086000E0,-2.823129272E-1,-2.767744446E-1,7.626790009E0,7.637030216E0
8.363015000E0,-2.713856506E-1,-2.938389587E-1,7.780220947E0,7.790496101E0
8.372943000E0,-1.924996948E-1,-1.975891113E-1,7.844138031E0,7.848987135E0
8.382872000E0,-1.573228455E-1,-1.466949463E-2,7.876770172E0,7.878354779E0
8.392800000E0,-1.368154907E-1,1.134640503E-1,7.858807526E0,7.860817279E0
8.402728000E0,-1.043330383E-1,1.155596924E-1,7.862549744E0,7.864091041E0
8.412657000E0,-1.945953369E-1,1.122665405E-2,7.855514374E0,7.857932264E0
8.422585000E0,-4.237687683E-1,-9.595046997E-2,7.792495422E0,7.804599373E0
8.432514000E0,-6.276448059E-1,-1.685494995E-1,7.797285461E0,7.824321536E0
8.442442000E0,-6.474037170E-1,-1.953437805E-1,7.987090759E0,8.015666508E0
8.452371000E0,-5.095404053E-1,-1.079255676E-1,8.252937927E0,8.269356915E0
8.462299000E0,-3.083587646E-1,8.187973022E-2,8.414601746E0,8.420647953E0
8.472228000E0,-1.330732727E-1,3.107537842E-1,8.429121552E0,8.435897495E0
8.482156000E0,-2.514770508E-2,5.319937134E-1,8.419691162E0,8.436518772E0
8.492085000E0,-1.496887207E-4,5.822891235E-1,8.420738983E0,8.440847450E0
8.502013000E0,-4.415817261E-2,5.553451538E-1,8.422235870E0,8.440640689E0
8.511941000E0,-1.907034302E-1,4.643344116E-1,8.509205017E0,8.523998139E0
8.521870333E0,-2.924917603E-1,2.971321106E-1,8.638835449E0,8.648891076E0
8.531798333E0,-3.285667419E-1,2.577639771E-1,8.822952576E0,8.832830267E0
8.541727333E0,-2.004331970E-1,2.650987244E-1,9.108408966E0,9.114470072E0
8.551655333E0,2.649490356E-2,2.689906311E-1,9.348210297E0,9.352117070E0
8.561584333E0,1.992356873E-1,3.640429688E-1,9.503587189E0,9.512643775E0
8.571512333E0,2.291734314E-1,4.620890808E-1,9.506730652E0,9.520712918E0
8.581440333E0,1.878593445E-1,5.197192383E-1,9.391021271E0,9.407267389E0
8.591369333E0,3.906875610E-2,5.614823914E-1,9.303902435E0,9.320911402E0
8.601297333E0,-1.041833496E-1,6.096821594E-1,9.221423950E0,9.242144025E0
8.611226333E0,-2.127076721E-1,6.239025879E-1,9.227860565E0,9.251373390E0
8.621154333E0,-2.689906311E-1,6.376739502E-1,9.348509674E0,9.374092871E0
8.631083333E0,-2.900967407E-1,6.243516541E-1,9.604178009E0,9.628821648E0
8.641011333E0,-3.606001282E-1,6.533912659E-1,9.892777863E0,9.920887382E0
8.650940333E0,-3.956272888E-1,6.819818115E-1,1.013751892E1,1.016813208E1
8.660868333E0,-4.122427368E-1,7.619155884E-1,1.039154068E1,1.042758731E1
8.670796333E0,-4.028123474E-1,7.920030212E-1,1.067205734E1,1.070898382E1
8.680725333E0,-4.079017639E-1,7.623646545E-1,1.085078568E1,1.088517953E1
8.690653333E0,-4.507127380E-1,7.792794800E-1,1.096814163E1,1.100502382E1
8.700582333E0,-3.763174438E-1,7.542814636E-1,1.109223358E1,1.112421688E1
8.710510333E0,-3.956272888E-1,6.170169067E-1,1.125344833E1,1.127729268E1
8.720439333E0,-4.224215698E-1,5.307962036E-1,1.140044266E1,1.142060757E1
8.730367333E0,-4.466711426E-1,4.532574463E-1,1.160042679E1,1.161786810E1
8.740296333E0,-3.960763550E-1,4.390370178E-1,1.173903854E1,1.175392087E1
8.750224333E0,-3.156935120E-1,5.535488892E-1,1.175295959E1,1.177022251E1
8.760152333E0,-2.306703186E-1,7.601193237E-1,1.172646469E1,1.175333843E1
8.770081333E0,-1.621128845E-1,1.030457153E0,1.168185745E1,1.172833816E1
8.780009333E0,-1.342707825E-1,1.235381012E0,1.178529236E1,1.185062491E1
8.789938333E0,-9.669891357E-2,1.379082184E0,1.196656540E1,1.204615730E1
8.799866333E0,-1.032852173E-1,1.506916351E0,1.217283646E1,1.226618980E1
8.809795333E0,-1.932481384E-1,1.565594330E0,1.237701187E1,1.247713322E1
8.819723333E0,-2.662962341E-1,1.492546234E0,1.261965729E1,1.271040353E1
8.829652333E0,-3.589535522E-1,1.381926270E0,1.292666885E1,1.300528106E1
8.839580333E0,-3.929328918E-1,1.291663971E0,1.330897385E1,1.337727838E1
8.849508333E0,-3.107537842E-1,1.307830353E0,1.366508331E1,1.373104111E1
8.859437333E0,-1.851649475E-1,1.462758179E0,1.391206970E1,1.398998324E1
8.869365333E0,-1.143621826E-1,1.730850677E0,1.408481049E1,1.419122296E1
8.879294333E0,-8.098159790E-2,2.054926758E0,1.411205383E1,1.426111305E1
8.889222333E0,-8.981323242E-4,2.464475098E0,1.406190811E1,1.427623543E1
8.899151333E0,1.820214844E-1,2.891686707E0,1.397224457E1,1.426949901E1
8.909079333E0,3.475772095E-1,3.156336365E0,1.377585297E1,1.413709285E1
8.919008333E0,3.616479492E-1,3.222049713E0,1.348006805E1,1.386450967E1
8.928936333E0,8.562194824E-2,3.140319672E0,1.311707291E1,1.348801469E1
8.938864333E0,-3.272195435E-1,2.860401764E0,1.269001099E1,1.301250743E1
8.948793333E0,-6.468049622E-1,2.528691559E0,1.231504074E1,1.258860064E1
8.958721333E0,-8.939410400E-1,2.219284973E0,1.202958435E1,1.226520510E1
8.968650333E0,-1.029109955E0,2.004481659E0,1.201745956E1,1.222686993E1
8.978578333E0,-1.064586182E0,1.871707764E0,1.208437042E1,1.227471556E1
8.988507333E0,-1.026565247E0,1.859433289E0,1.206790466E1,1.225339346E1
8.998435333E0,-8.845106506E-1,2.052831116E0,1.213900681E1,1.234309365E1
9.008364333E0,-7.764353943E-1,2.250420227E0,1.226220062E1,1.249114916E1
9.018292333E0,-5.484594727E-1,2.314337311E0,1.234527786E1,1.257230490E1
9.028220333E0,-2.945874023E-1,2.448159027E0,1.234872070E1,1.259250441E1
9.038149333E0,-2.294728088E-1,2.627037048E0,1.235231323E1,1.263066204E1
9.048077333E0,-2.324665833E-1,2.732866974E0,1.235979767E1,1.266045817E1
9.058006333E0,-1.936972046E-1,2.799478455E0,1.237162308E1,1.268588412E1
9.067934333E0,-1.311273193E-1,2.946921844E0,1.233899094E1,1.268669540E1
9.077863333E0,-6.885681152E-3,3.133883057E0,1.226564346E1,1.265967140E1
9.087791333E0,1.481918335E-1,3.348536682E0,1.225426712E1,1.270439772E1
9.097720333E0,3.113525391E-1,3.581152954E0,1.218346436E1,1.270269265E1
9.107648333E0,3.516188049E-1,3.784729614E0,1.197734299E1,1.256600808E1
9.117576333E0,4.932243347E-1,3.820056152E0,1.179606995E1,1.240900340E1
9.127505333E0,4.276606750E-1,3.763324127E0,1.155626862E1,1.216112028E1
9.137433333E0,3.118016052E-1,3.610192566E0,1.130194748E1,1.186864472E1
9.147362333E0,1.366658020E-1,3.367846527E0,1.097023727E1,1.147637459E1
9.157290333E0,-8.577163696E-2,3.122656403E0,1.066771637E1,1.111568767E1
9.167219333E0,-2.550695801E-1,2.947670288E0,1.046009811E1,1.087048634E1
9.177147333E0,-3.508703613E-1,2.841091919E0,1.026879593E1,1.066035099E1
9.187076333E0,-4.914280701E-1,2.883753204E0,1.020338196E1,1.061444947E1
9.197004333E0,-4.544549561E-1,3.025059357E0,1.027164001E1,1.071746715E1
9.206932333E0,-4.969665527E-1,3.055745544E0,1.006477020E1,1.053015460E1
9.216861333E0,-3.423381042E-1,3.067870331E0,9.822124786E0,1.029578356E1
9.226789333E0,-2.902464294E-1,3.077899475E0,9.621990967E0,1.010645429E1
9.236718333E0,-4.150868225E-1,3.036286011E0,9.553134155E0,1.003263186E1
9.246646333E0,-5.959107971E-1,2.930755463E0,9.404642944E0,9.868725661E0
9.256575333E0,-7.511380005E-1,2.930007019E0,9.168434143E0,9.654498126E0
9.266503333E0,-6.783892822E-1,3.034340057E0,8.983568573E0,9.506415513E0
9.276431333E0,-4.581971741E-1,3.180735626E0,8.848249969E0,9.413742683E0
9.286360333E0,-3.255729675E-1,3.376079407E0,8.629105682E0,9.271751442E0
9.296288333E0,-2.526745605E-1,3.532803497E0,8.379275208E0,9.097076343E0
9.306217333E0,-1.315763855E-1,3.651057587E0,8.160579987E0,8.941062552E0
9.316145333E0,-2.776725769E-1,3.741619263E0,7.984995117E0,8.822525930E0
9.326074333E0,-4.833448792E-1,3.686982880E0,7.864196320E0,8.699025737E0
9.336002333E0,-6.520440674E-1,3.513194275E0,7.802225189E0,8.581515797E0
9.345931333E0,-8.659492493E-1,3.272494812E0,7.920179901E0,8.613265354E0
9.355859333E0,-9.987231445E-1,2.965782623E0,8.158783722E0,8.738367485E0
9.365787333E0,-1.066083069E0,2.781366119E0,8.531658325E0,9.036687688E0
9.375716333E0,-1.121916962E0,2.609822845E0,8.722661133E0,9.173586550E0
9.385644333E0,-9.731263733E-1,2.527344360E0,8.674161987E0,9.087107936E0
9.395573333E0,-8.794212341E-1,2.614163818E0,8.556806030E0,8.990337236E0
9.405501333E0,-8.801696777E-1,2.692301331E0,8.430169373E0,8.893308764E0
9.415430333E0,-8.253836060E-1,2.749482422E0,8.212521973E0,8.699794758E0
9.425358333E0,-7.544311523E-1,2.883154449E0,7.970625000E0,8.509559850E0
9.435287333E0,-6.551875305E-1,2.999462585E0,7.713459778E0,8.302018324E0
9.445215333E0,-5.987548828E-1,3.061583405E0,7.547005920E0,8.166339371E0
9.455143333E0,-5.180726624E-1,3.076552277E0,7.469018097E0,8.094430463E0
9.465072333E0,-4.328997803E-1,3.159479828E0,7.489525452E0,8.140190814E0
9.475000333E0,-4.096980286E-1,3.244802399E0,7.445816345E0,8.132452037E0
9.484929333E0,-4.227209473E-1,3.366948395E0,7.360194397E0,8.104782295E0
9.494857333E0,-3.793112183E-1,3.485501862E0,7.373217316E0,8.164369774E0
9.504786333E0,-3.415896606E-1,3.527414703E0,7.444169769E0,8.244695358E0
9.514714333E0,-3.215313721E-1,3.522924042E0,7.480993195E0,8.275242317E0
9.524643833E0,-3.841012573E-1,3.387156372E0,7.563321991E0,8.296035294E0
9.534571833E0,-5.252577209E-1,3.133134613E0,7.687563629E0,8.318116537E0
9.544499833E0,-7.235952759E-1,2.856958923E0,7.774981842E0,8.314814914E0
9.554428833E0,-9.092092896E-1,2.604134674E0,7.821984100E0,8.294071027E0
9.564356833E0,-1.022523651E0,2.467917938E0,7.955506439E0,8.392035288E0
9.574285833E0,-9.045689392E-1,2.555934906E0,7.999664612E0,8.446637326E0
9.584213833E0,-6.605763245E-1,2.729723511E0,7.931107178E0,8.413691971E0
9.594142833E0,-4.195774841E-1,2.886896667E0,7.818541260E0,8.345046738E0
9.604070833E0,-2.978805542E-1,3.049308929E0,7.716603241E0,8.302588955E0
9.613999833E0,-2.130070496E-1,3.088227997E0,7.615413666E0,8.220526106E0
9.623927833E0,-1.945953369E-1,3.119962006E0,7.514074402E0,8.138387087E0
9.633855833E0,-2.658471680E-1,3.150199127E0,7.437882843E0,8.081864293E0
9.643784833E0,-2.853067017E-1,3.157384186E0,7.342381439E0,7.997564630E0
9.653712833E0,-3.251239014E-1,3.211272125E0,7.315587158E0,7.995985848E0
9.663641833E0,-4.302053833E-1,3.344644775E0,7.372019806E0,8.106688681E0
9.673569833E0,-5.206173706E-1,3.423830109E0,7.461683350E0,8.226200427E0
9.683498833E0,-5.635780334E-1,3.500470734E0,7.578889618E0,8.367226745E0
9.693426833E0,-5.831872559E-1,3.530109100E0,7.789950714E0,8.572345640E0
9.703355833E0,-5.978567505E-1,3.502117310E0,8.084687805E0,8.830879642E0
9.713283833E0,-7.286846924E-1,3.398383026E0,8.419840851E0,9.108990533E0
9.723211833E0,-8.556207275E-1,3.367397461E0,8.694819031E0,9.363296987E0
9.733140833E0,-9.858499146E-1,3.331172791E0,8.972641296E0,9.621689251E0
9.743068833E0,-1.099014587E0,3.265010376E0,9.250912628E0,9.871550551E0
9.752997833E0,-1.142873383E0,3.281476135E0,9.470805359E0,1.008813161E1
9.762925833E0,-1.141226807E0,3.397933960E0,9.619296570E0,1.026543815E1
9.772854833E0,-1.026265869E0,3.525019684E0,9.758806458E0,1.042656650E1
9.782782833E0,-8.497828674E-1,3.709436188E0,9.864486694E0,1.057308590E1
9.792710833E0,-6.381230164E-1,3.832929382E0,9.884095917E0,1.062044729E1
9.802639833E0,-4.108955383E-1,3.918850708E0,9.938732300E0,1.069133414E1
9.812567833E0,-3.457809448E-1,3.874692535E0,9.953701172E0,1.068685986E1
9.822496833E0,-3.927832031E-1,3.746409302E0,9.818532257E0,1.051634143E1
9.832424833E0,-4.921765137E-1,3.652704163E0,9.707612915E0,1.038374855E1
9.842353833E0,-5.023553467E-1,3.480711823E0,9.683213654E0,1.030205525E1
9.852281833E0,-4.787045288E-1,3.367846527E0,9.647737427E0,1.022987711E1
9.862210833E0,-5.414241028E-1,3.434458008E0,9.650731201E0,1.025793618E1
9.872138833E0,-5.737568665E-1,3.447480927E0,9.708211670E0,1.031812461E1
9.882066833E0,-4.800517273E-1,3.458707581E0,9.857301636E0,1.045750942E1
9.891995833E0,-4.794529724E-1,3.543880463E0,1.010069550E1,1.071508345E1
9.901923833E0,-4.927752686E-1,3.567082214E0,1.038330780E1,1.098999472E1
9.911852833E0,-4.472698975E-1,3.587888947E0,1.073402847E1,1.132662195E1
9.921780833E0,-3.945794678E-1,3.603755951E0,1.108340195E1,1.166124130E1
9.931709833E0,-3.926335144E-1,3.543730774E0,1.143546982E1,1.197840385E1
9.941637833E0,-4.334985352E-1,3.395389252E0,1.184995789E1,1.233442707E1
9.951566833E0,-4.064048767E-1,3.234174500E0,1.225067459E1,1.267691120E1
9.961494833E0,-4.448748779E-1,3.067121887E0,1.257714569E1,1.295336806E1
9.971422833E0,-2.538720703E-1,2.836301880E0,1.286993683E1,1.318121138E1
9.981351833E0,-9.490264893E-2,2.655178528E0,1.318113968E1,1.344624196E1
9.991279833E0,-2.282752991E-1,2.721041565E0,1.319895264E1,1.347844678E1
1.000120883E1,-5.284011841E-1,2.764900360E0,1.289897644E1,1.320255562E1
1.001113683E1,-8.795709229E-1,2.735261993E0,1.257355316E1,1.289765646E1
1.002106583E1,-1.184636536E0,2.674188995E0,1.230321533E1,1.264609655E1
1.003099383E1,-1.325643311E0,2.699935455E0,1.214978439E1,1.251655873E1
1.004092283E1,-1.185235291E0,2.762804718E0,1.210113556E1,1.246897568E1
1.005085083E1,-9.300160217E-1,2.817590790E0,1.205533081E1,1.241510164E1
1.006077883E1,-6.631210327E-1,2.871778107E0,1.205712708E1,1.241213730E1
1.007070783E1,-3.281176758E-1,2.910397797E0,1.217089050E1,1.251833264E1
1.008063583E1,-1.115180969E-1,2.963387604E0,1.228121109E1,1.263416987E1
1.009056483E1,-7.140151978E-2,2.915337524E0,1.230082031E1,1.264177485E1
1.010049283E1,-1.266366577E-1,2.736908569E0,1.234902008E1,1.264930837E1
1.011042183E1,-7.259902954E-2,2.525398407E0,1.248359024E1,1.273667669E1
1.012034983E1,-2.395019531E-2,2.351609802E0,1.261875916E1,1.283603229E1
1.013027783E1,-8.846603394E-2,2.200723572E0,1.265199005E1,1.284226860E1
1.014020683E1,-1.158590698E-1,2.047442322E0,1.261067596E1,1.277632935E1
1.015013483E1,-9.909393311E-2,1.987267456E0,1.266950363E1,1.282479527E1
1.016006383E1,-1.353186035E-1,1.945204926E0,1.277877640E1,1.292668788E1
1.016999183E1,-2.089654541E-1,1.917961578E0,1.286814056E1,1.301196698E1
1.017992083E1,-1.916015625E-1,1.926194458E0,1.293475204E1,1.307878996E1
1.018984883E1,-1.013392639E-1,1.987566833E0,1.309027863E1,1.324069810E1
1.019977783E1,-1.157093811E-1,1.954335938E0,1.322380096E1,1.336793662E1
1.020970583E1,-1.049317932E-1,1.881287842E0,1.330119003E1,1.343398343E1
1.021963383E1,-1.221459961E-1,1.771566010E0,1.347482895E1,1.359133478E1
1.022956283E1,-1.362167358E-1,1.569935303E0,1.364951569E1,1.374017941E1
1.023949083E1,-1.672023010E-1,1.366358643E0,1.369322479E1,1.376224174E1
1.024941983E1,-2.372566223E-1,1.258133698E0,1.362870895E1,1.368871429E1
1.025934783E1,-2.323168945E-1,1.143621826E0,1.354428452E1,1.359446524E1
1.026927683E1,-2.215393066E-1,1.057101746E0,1.346285385E1,1.350610890E1
1.027920483E1,-2.029779053E-1,1.048719177E0,1.326915665E1,1.331208211E1
1.028913383E1,-1.413061523E-1,1.051263885E0,1.299762131E1,1.304083137E1
1.029906183E1,-1.778302002E-1,1.017434235E0,1.272069717E1,1.276255980E1
1.030898983E1,-3.245251465E-1,9.377998352E-1,1.237805969E1,1.241777544E1
1.031891883E1,-4.308041382E-1,7.872129822E-1,1.191866501E1,1.195240026E1
1.032884683E1,-5.450166321E-1,7.137158203E-1,1.137798935E1,1.141337264E1
1.033877583E1,-6.556365967E-1,7.343728638E-1,1.097936829E1,1.102341557E1
1.034870383E1,-6.953041077E-1,7.943980408E-1,1.074809921E1,1.079982188E1
1.035863283E1,-5.673202515E-1,9.610015869E-1,1.057895096E1,1.063764916E1
1.036856083E1,-2.809657288E-1,1.208886108E0,1.040860519E1,1.048233798E1
1.037848983E1,5.164260864E-2,1.449136505E0,1.027283752E1,1.037467370E1
1.038841783E1,3.076103210E-1,1.591490479E0,1.012838791E1,1.025727584E1
1.039834583E1,4.463717651E-1,1.398392029E0,1.008018814E1,1.018650779E1
1.040827483E1,2.694396973E-1,1.076710968E0,1.003707779E1,1.009825900E1
1.041820283E1,-1.996847534E-1,7.454498291E-1,9.982740784E0,1.001252630E1
1.042813183E1,-6.153703308E-1,2.655477905E-1,9.922116852E0,9.944727201E0
1.043805983E1,-8.428971863E-1,-2.963836670E-2,9.906848602E0,9.942685921E0
1.044798883E1,-9.044192505E-1,-1.119671631E-1,9.926906891E0,9.968650423E0
1.045791683E1,-7.899073792E-1,-4.340972900E-3,9.989925842E0,1.002110727E1
1.046784483E1,-5.068460083E-1,2.342628479E-1,9.973310394E0,9.988928480E0
1.047777383E1,-3.098556519E-1,4.763095093E-1,9.809101868E0,9.825546332E0
1.048770183E1,-1.160087585E-1,6.274951172E-1,9.560319214E0,9.581592332E0
1.049763083E1,-8.756790161E-2,6.782395935E-1,9.299860840E0,9.324971245E0
1.050755883E1,-1.178050232E-1,6.056405640E-1,9.022936707E0,9.044007150E0
1.051748708E1,-1.570234680E-1,4.590953064E-1,8.722212067E0,8.735697351E0
1.052741508E1,-3.176394653E-1,2.962339783E-1,8.441545715E0,8.452712196E0
1.053734408E1,-3.917353821E-1,1.055305481E-1,8.245004425E0,8.254979786E0
1.054727208E1,-4.162843323E-1,-1.317260742E-2,8.039481812E0,8.050262975E0
1.055720008E1,-3.894900513E-1,-5.313949585E-2,7.908204803E0,7.917968775E0
1.056712908E1,-3.041674805E-1,-1.601669312E-2,7.855963440E0,7.861865934E0
1.057705708E1,-2.037263489E-1,2.619552612E-2,7.845485229E0,7.848173617E0
1.058698608E1,-1.435514832E-1,9.834548950E-2,7.769593048E0,7.771541353E0
1.059691408E1,-1.062789917E-1,2.927911377E-1,7.642357635E0,7.648702642E0
1.060684308E1,-1.302291870E-2,5.451663208E-1,7.649542694E0,7.668955557E0
1.061677108E1,8.038284302E-2,7.264393616E-1,7.621700592E0,7.656663468E0
1.062670008E1,1.441502380E-1,8.075706482E-1,7.566465454E0,7.610804761E0
1.063662808E1,5.463638306E-2,8.232879639E-1,7.604636078E0,7.649266506E0
1.064655608E1,-2.022294617E-1,6.107299805E-1,7.735164642E0,7.761872191E0
1.065648508E1,-5.716612244E-1,1.895059204E-1,7.938441925E0,7.961254251E0
1.066641308E1,-8.259823608E-1,-1.655557251E-1,8.162975006E0,8.206327833E0
1.067634208E1,-9.636959839E-1,-4.043092346E-1,8.328530731E0,8.393842984E0
1.068627008E1,-9.246272278E-1,-3.888912964E-1,8.473728790E0,8.532892333E0
1.069619908E1,-7.942483521E-1,-5.463638306E-2,8.497828674E0,8.535039997E0
1.070612708E1,-4.643344116E-1,4.924758911E-1,8.406668243E0,8.433872770E0
1.071605608E1,2.844085693E-3,8.987310791E-1,8.401878204E0,8.449809643E0
1.072598408E1,1.951940918E-1,1.242715759E0,8.183482361E0,8.279603055E0
1.073591208E1,4.942721558E-1,1.526675262E0,8.137677612E0,8.294386008E0
1.074584108E1,6.346801758E-1,1.441801758E0,8.096513214E0,8.248341498E0
1.075576908E1,5.507048035E-1,1.143771515E0,7.967780914E0,8.068272539E0
1.076569808E1,1.481918335E-1,8.502319336E-1,7.784711609E0,7.832406399E0
1.077562608E1,-2.257305908E-1,5.721102905E-1,7.525600433E0,7.550690456E0
1.078555508E1,-4.625381470E-1,3.887416077E-1,7.362589417E0,7.387339473E0
1.079548308E1,-6.559359741E-1,4.107458496E-1,7.340435486E0,7.381121681E0
1.080541108E1,-7.020401001E-1,5.239105225E-1,7.424410858E0,7.475909251E0
1.081534008E1,-5.731581116E-1,6.213578796E-1,7.685617676E0,7.731967078E0
1.082526808E1,-3.848497009E-1,8.161029053E-1,8.003257141E0,8.053959158E0
1.083519708E1,-2.618055725E-1,9.800120544E-1,8.267607422E0,8.329603728E0
1.084512508E1,-2.701881409E-1,1.074315948E0,8.523874512E0,8.595556589E0
1.085505408E1,-2.815644836E-1,1.065634003E0,8.689879303E0,8.759500938E0
1.086498208E1,-3.826043701E-1,9.651928711E-1,8.742420044E0,8.803856633E0
1.087491108E1,-4.908293152E-1,8.919950867E-1,8.797206116E0,8.855924802E0
1.088483908E1,-5.951623535E-1,8.150550842E-1,8.893455963E0,8.950535849E0
1.089476708E1,-6.099815369E-1,7.053332520E-1,9.010362854E0,9.058488353E0
1.090469608E1,-6.569837952E-1,6.459068298E-1,9.109905853E0,9.156375265E0
1.091462408E1,-6.785389709E-1,7.008425903E-1,9.226663055E0,9.278087444E0
1.092455308E1,-6.122268677E-1,7.711962891E-1,9.406439209E0,9.457836119E0
1.093448108E1,-4.408332825E-1,9.147477722E-1,9.601932678E0,9.655475577E0
1.094441008E1,-2.637515259E-1,1.136885834E0,9.743538208E0,9.813185572E0
1.095433808E1,-1.468446350E-1,1.316961365E0,9.852661285E0,9.941372390E0
1.096426608E1,-9.714797974E-2,1.424587555E0,9.928254089E0,1.003040960E1
1.097419508E1,-9.774673462E-2,1.388063507E0,1.004111938E1,1.013707814E1
1.098412308E1,-2.299218750E-1,1.174457703E0,1.014395554E1,1.021430609E1
1.099405208E1,-3.981719971E-1,1.034049683E0,1.019874161E1,1.025875870E1
1.100398008E1,-5.914201355E-1,9.669891357E-1,1.022927811E1,1.029188886E1
1.101390908E1,-5.969586182E-1,1.076710968E0,1.042806473E1,1.050048571E1
1.102383708E1,-5.653742981E-1,1.275946655E0,1.076576248E1,1.085584312E1
1.103376608E1,-4.233197021E-1,1.603914642E0,1.110974716E1,1.123290807E1
1.104369408E1,-1.588197327E-1,1.966909790E0,1.141660904E1,1.158589314E1
1.105362208E1,-1.818717957E-1,2.181862793E0,1.158216476E1,1.178728736E1
1.106355108E1,-2.360591125E-1,2.244881744E0,1.172826096E1,1.194350547E1
1.107347908E1,-4.465214539E-1,2.215542755E0,1.183004929E1,1.204400586E1
1.108340808E1,-5.685177612E-1,2.205513611E0,1.202060303E1,1.223447587E1
1.109333608E1,-5.812413025E-1,2.122586060E0,1.234497849E1,1.253960553E1
1.110326508E1,-7.155120850E-1,2.130818939E0,1.246562759E1,1.266665774E1
1.111319308E1,-8.000862122E-1,2.279908905E0,1.255499176E1,1.278537996E1
1.112312208E1,-7.833210754E-1,2.418370972E0,1.264540375E1,1.289838540E1
1.113305008E1,-6.822811890E-1,2.616409149E0,1.261995667E1,1.290637093E1
1.114297808E1,-5.553451538E-1,2.768792267E0,1.271770340E1,1.302745557E1
1.115290708E1,-5.381309509E-1,2.774630127E0,1.274749146E1,1.305705540E1
1.116283508E1,-6.786886597E-1,2.744243317E0,1.259091705E1,1.290436678E1
1.117276408E1,-8.958869934E-1,2.700983276E0,1.229483276E1,1.261985883E1
1.118269208E1,-1.056952057E0,2.687062225E0,1.194875244E1,1.229268628E1
1.119262108E1,-1.159039764E0,2.736758881E0,1.171658524E1,1.208766280E1
1.120254908E1,-1.123713226E0,2.814597015E0,1.168380341E1,1.207045773E1
1.121247708E1,-1.144220581E0,2.880160675E0,1.165865570E1,1.206353261E1
1.122240608E1,-1.101559296E0,2.955603790E0,1.167886368E1,1.209730893E1
1.123233408E1,-1.060095520E0,2.938090210E0,1.177391602E1,1.218118528E1
1.124226308E1,-1.199156342E0,2.936743011E0,1.190818680E1,1.232344709E1
1.125219108E1,-1.342707825E0,2.948718109E0,1.192749664E1,1.235973216E1
1.126212008E1,-1.115031281E0,2.896776123E0,1.200234100E1,1.239720921E1
1.127204808E1,-9.488768005E-1,3.027903442E0,1.205218735E1,1.246289638E1
1.128197708E1,-8.767268372E-1,3.051853638E0,1.214005463E1,1.254844161E1
1.129190508E1,-6.677613831E-1,2.804118805E0,1.233030899E1,1.266276065E1
1.130183308E1,-6.026467896E-1,2.702330475E0,1.243658798E1,1.274105544E1
1.131176208E1,-5.295986938E-1,2.652484131E0,1.257400223E1,1.286163593E1
1.132169008E1,-2.897973633E-1,2.551144867E0,1.267399429E1,1.293145212E1
1.133161908E1,-2.227368164E-1,2.576741638E0,1.252670059E1,1.279091228E1
1.134154708E1,-1.752854919E-1,2.787952423E0,1.223585541E1,1.255067971E1
1.135147608E1,-2.667453003E-1,3.001558228E0,1.187465652E1,1.225103965E1
1.136140408E1,-3.109034729E-1,3.153342590E0,1.151555328E1,1.194354210E1
1.137133208E1,-3.375480652E-1,3.313808899E0,1.126811783E1,1.175013819E1
1.138126108E1,-3.433859253E-1,3.362906799E0,1.125659180E1,1.175320871E1
1.139118908E1,-4.167333984E-1,3.283272400E0,1.133038834E1,1.180386565E1
1.140111808E1,-6.249504089E-1,3.140768738E0,1.141136993E1,1.185218777E1
1.141104608E1,-8.711883545E-1,3.011287994E0,1.157003998E1,1.198718689E1
1.142097508E1,-9.394464111E-1,2.905009003E0,1.183304306E1,1.222057875E1
1.143090308E1,-8.150550842E-1,2.919079742E0,1.214454529E1,1.251700130E1
1.144083208E1,-5.315446472E-1,2.949167175E0,1.234108658E1,1.269970648E1
1.145076008E1,-2.415975952E-1,2.949466553E0,1.244631775E1,1.279330090E1
1.146068808E1,9.610015869E-2,2.935844879E0,1.256591904E1,1.290467906E1
1.147061708E1,2.899470520E-1,2.996319122E0,1.254017258E1,1.289643074E1
1.148054508E1,5.589376831E-1,3.248993683E0,1.231968109E1,1.275315308E1
1.149047408E1,7.665559387E-1,3.578308868E0,1.188752975E1,1.243805716E1
1.150040208E1,9.544152832E-1,3.948788452E0,1.133966904E1,1.204541127E1
1.151033108E1,1.046324158E0,4.259991302E0,1.076770844E1,1.162694565E1
1.152025888E1,9.683363342E-1,4.353546753E0,1.024873764E1,1.117710463E1
1.153018788E1,6.869215393E-1,4.210743713E0,9.843530273E0,1.072834153E1
1.154011588E1,4.117936707E-1,4.011807404E0,9.631720734E0,1.044194508E1
1.155004388E1,9.160949707E-2,3.709735565E0,9.521699524E0,1.021926084E1
1.155997288E1,-2.383044434E-1,3.384162598E0,9.511371002E0,1.009829312E1
1.156990088E1,-4.775070190E-1,3.116519165E0,9.540111237E0,1.004760803E1
1.157982988E1,-6.822811890E-1,2.936443634E0,9.583820343E0,1.004678163E1
1.158975788E1,-7.768844604E-1,2.952460327E0,9.633367310E0,1.010555972E1
1.159968688E1,-7.776329041E-1,3.094814301E0,9.658814392E0,1.017228017E1
1.160961488E1,-6.367758179E-1,3.234324188E0,9.622889099E0,1.017184010E1
1.161954287E1,-6.065386963E-1,3.386856995E0,9.413025513E0,1.002216238E1
1.162947187E1,-5.339396667E-1,3.479214935E0,9.341324615E0,9.982503379E0
1.163939987E1,-6.146218872E-1,3.418441315E0,9.247170410E0,9.877938129E0
1.164932888E1,-7.120692444E-1,3.210373993E0,9.059760132E0,9.638090964E0
1.165925688E1,-8.449928284E-1,2.969674530E0,8.933572540E0,9.452073742E0
1.166918588E1,-9.395960999E-1,2.772384796E0,8.812174988E0,9.285654867E0
1.167911388E1,-9.842033386E-1,2.598446503E0,8.679251404E0,9.113176470E0
1.168904288E1,-9.349557495E-1,2.498005371E0,8.479566650E0,8.889163271E0
1.169897088E1,-8.851094055E-1,2.514171753E0,8.289461975E0,8.707448426E0
1.170889888E1,-7.738906860E-1,2.607427826E0,8.103099518E0,8.547386060E0
1.171882788E1,-6.399192810E-1,2.757415924E0,7.959697723E0,8.448054635E0
1.172875588E1,-4.968168640E-1,2.904260559E0,7.861501923E0,8.395520762E0
1.173868488E1,-3.872447205E-1,3.033292236E0,7.847730560E0,8.422451853E0
1.174861288E1,-3.273692322E-1,3.086731110E0,7.887697449E0,8.476488105E0
1.175854188E1,-2.914439392E-1,3.016377411E0,7.928113403E0,8.487547018E0
1.176846988E1,-3.270698547E-1,2.950214996E0,8.015681305E0,8.547624816E0
1.177839788E1,-4.382885742E-1,2.843187561E0,8.098010101E0,8.593810562E0
1.178832688E1,-4.882846069E-1,2.729274445E0,8.164621582E0,8.622552199E0
1.179825488E1,-5.393284607E-1,2.692750397E0,8.167914734E0,8.617227570E0
1.180818388E1,-5.803431702E-1,2.680026855E0,8.104446716E0,8.555781596E0
1.181811187E1,-5.641767883E-1,2.648741913E0,8.033045197E0,8.477260424E0
1.182804087E1,-5.804928589E-1,2.615211639E0,7.951315155E0,8.390453896E0
1.183796887E1,-5.852828979E-1,2.574645996E0,7.828121338E0,8.261406766E0
1.184789787E1,-5.736071777E-1,2.527793427E0,7.719746704E0,8.143295032E0
1.185782588E1,-5.126838684E-1,2.522105255E0,7.615713043E0,8.038839768E0
1.186775388E1,-4.689747620E-1,2.489922180E0,7.492968292E0,7.909754966E0
1.187768288E1,-4.041595459E-1,2.494412842E0,7.466323700E0,7.882349266E0
1.188761088E1,-3.478765869E-1,2.554438019E0,7.391629028E0,7.828304504E0
1.189753988E1,-2.395019531E-1,2.641556854E0,7.340435486E0,7.804945671E0
1.190746788E1,-1.541793823E-1,2.790048065E0,7.283104706E0,7.800753402E0
1.191739688E1,-1.196012878E-1,2.961591339E0,7.225324860E0,7.809650892E0
1.192732488E1,-1.070274353E-1,3.038681030E0,7.173382874E0,7.791178289E0
1.193725288E1,-1.932481384E-1,3.057092743E0,7.102430420E0,7.734835406E0
1.194718188E1,-3.471281433E-1,3.027604065E0,7.103927307E0,7.729984962E0
1.195710988E1,-5.372328186E-1,2.946772156E0,7.243586884E0,7.838471546E0
1.196703888E1,-6.700067139E-1,2.804567871E0,7.470215607E0,8.007411014E0
1.197696688E1,-7.616162109E-1,2.726729736E0,7.780819702E0,8.279871348E0
1.198689588E1,-8.167016602E-1,2.669698334E0,8.140072632E0,8.605525739E0
1.199682388E1,-7.921527100E-1,2.617007904E0,8.442144470E0,8.873896525E0
1.200675288E1,-7.000941467E-1,2.648292847E0,8.640332336E0,9.064156315E0
1.201668088E1,-6.713539124E-1,2.758912811E0,8.823850708E0,9.269447518E0
1.202660887E1,-5.644761658E-1,2.803220673E0,9.043294373E0,9.484611357E0
1.203653787E1,-4.816983032E-1,2.793640594E0,9.260792084E0,9.684974499E0
1.204646588E1,-4.583468628E-1,2.783162384E0,9.423803101E0,9.836876515E0
1.205639488E1,-4.170327759E-1,2.724484406E0,9.546248474E0,9.936175901E0
1.206632288E1,-3.953279114E-1,2.662962341E0,9.642797699E0,1.001155333E1
1.207625188E1,-3.480262756E-1,2.627635803E0,9.705816650E0,1.006123596E1
1.208617988E1,-3.320095825E-1,2.605930939E0,9.713151398E0,1.006212783E1
1.209610788E1,-3.177891541E-1,2.593207397E0,9.613458710E0,9.962143490E0
1.210603688E1,-2.914439392E-1,2.619103546E0,9.450447693E0,9.810994065E0
1.211596488E1,-3.710783386E-1,2.614313507E0,9.216184845E0,9.586991047E0
1.212589388E1,-4.147874451E-1,2.517764282E0,9.103319550E0,9.454184916E0
1.213582188E1,-6.117778015E-1,2.397414551E0,9.046437836E0,9.378694265E0
1.214575088E1,-7.605683899E-1,2.246678009E0,8.923543396E0,9.233398783E0
1.215567888E1,-8.099656677E-1,2.093546448E0,8.979676666E0,9.256002060E0
1.216560788E1,-8.520281982E-1,1.905687103E0,9.113049316E0,9.349078202E0
1.217553588E1,-8.104147339E-1,1.785936127E0,9.339678040E0,9.543370776E0
1.218546388E1,-7.015910339E-1,1.839824066E0,9.596543884E0,9.796470645E0
1.219539288E1,-5.331912231E-1,1.975142670E0,9.909093933E0,1.011808401E1
1.220532088E1,-2.848576355E-1,2.124232635E0,1.027164001E1,1.049285932E1
1.221524988E1,-5.733078003E-2,2.249821472E0,1.072819061E1,1.096170869E1
1.222517787E1,1.224453735E-1,2.150128784E0,1.115555191E1,1.136153093E1
1.223510687E1,1.101708984E-1,1.996847534E0,1.145328278E1,1.162657405E1
1.224503488E1,-5.718109131E-2,1.844913483E0,1.166569107E1,1.181081384E1
1.225496288E1,-2.369572449E-1,1.622775421E0,1.173185349E1,1.184592483E1
1.226489188E1,-4.402345276E-1,1.410965881E0,1.178155014E1,1.187390226E1
1.227481988E1,-5.294490051E-1,1.282532959E0,1.176104279E1,1.184260674E1
1.228474888E1,-6.015989685E-1,1.276695099E0,1.181223633E1,1.189625146E1
1.229467688E1,-5.833369446E-1,1.290466461E0,1.197839081E1,1.206181711E1
1.230460588E1,-5.077441406E-1,1.264869690E0,1.212493607E1,1.220130215E1
1.231453388E1,-4.326004028E-1,1.311273193E0,1.227342728E1,1.235085412E1
1.232446288E1,-2.932402039E-1,1.469194794E0,1.238150253E1,1.247181335E1
1.233439088E1,-9.325607300E-2,1.613794098E0,1.253897507E1,1.264274194E1
1.234431888E1,1.764830017E-1,1.691931610E0,1.279045212E1,1.290307887E1
1.235424788E1,3.583547974E-1,1.782792664E0,1.306393341E1,1.318988719E1
1.236417588E1,4.571493530E-1,1.807940369E0,1.328232925E1,1.341260244E1
1.237410488E1,4.761598206E-1,1.773362274E0,1.347213455E1,1.359668898E1
1.238403288E1,5.201683044E-1,1.607207794E0,1.368304596E1,1.378693000E1
1.239396188E1,4.677772522E-1,1.453627167E0,1.377016479E1,1.385457636E1
1.240388988E1,4.930746460E-1,1.369202728E0,1.394380371E1,1.401953996E1
1.241381787E1,6.553372192E-1,1.281335449E0,1.403361694E1,1.410722127E1
1.242374687E1,7.346722412E-1,1.293609924E0,1.403735916E1,1.411597046E1
1.243367487E1,7.767347717E-1,1.262774048E0,1.387779099E1,1.395675456E1
1.244360387E1,7.685018921E-1,1.134640503E0,1.366403549E1,1.373258425E1
1.245353188E1,7.360194397E-1,8.803193665E-1,1.345596817E1,1.350480530E1
1.246346088E1,4.872367859E-1,6.219566345E-1,1.323652451E1,1.326008336E1
1.247338888E1,2.691403198E-1,2.939886475E-1,1.283565811E1,1.284184508E1
1.248331688E1,4.939727783E-2,4.131408691E-2,1.253074219E1,1.253090766E1
1.249324588E1,-1.143621826E-1,-2.171983337E-1,1.234482880E1,1.234726900E1
1.250317388E1,-1.654060364E-1,-4.134402466E-1,1.222013809E1,1.222824873E1
1.251310288E1,-2.086660767E-1,-5.170248413E-1,1.215846634E1,1.217124315E1
1.252303088E1,-3.073109436E-1,-5.908213806E-1,1.216984268E1,1.218805074E1
1.253295988E1,-2.585124207E-1,-5.138813782E-1,1.233509903E1,1.234850480E1
1.254288788E1,-6.676116943E-2,-3.092568970E-1,1.257325378E1,1.257723370E1
1.255281688E1,2.130070496E-1,-1.288819885E-1,1.272174500E1,1.272418085E1
1.256274488E1,4.680766296E-1,3.293151855E-2,1.283011963E1,1.283869736E1
1.257267288E1,5.556445312E-1,-5.598358154E-2,1.284688477E1,1.285901719E1
1.258260188E1,4.649331665E-1,-2.398013306E-1,1.303983353E1,1.305032283E1
1.259252988E1,2.874023438E-1,-4.326004028E-1,1.325328964E1,1.326346220E1
1.260245888E1,2.236349487E-1,-6.598278809E-1,1.332349365E1,1.334169661E1
1.261238688E1,3.471281433E-1,-7.476951599E-1,1.319491104E1,1.322063627E1
1.262231587E1,4.598437500E-1,-6.536906433E-1,1.289388702E1,1.291863345E1
1.263224387E1,6.134243774E-1,-4.770579529E-1,1.251322861E1,1.253733480E1
1.264217188E1,7.197033691E-1,-3.182382202E-1,1.213541428E1,1.216090162E1
1.265210088E1,7.816744995E-1,-2.179467773E-1,1.167437302E1,1.170254251E1
1.266202888E1,7.247927856E-1,-1.332229614E-1,1.118279526E1,1.120705058E1
1.267195788E1,5.706134033E-1,-1.784289551E-1,1.080228653E1,1.081881836E1
1.268188588E1,4.342469788E-1,-3.170407104E-1,1.050784882E1,1.052159551E1
1.269181488E1,3.047662354E-1,-4.050576782E-1,1.034229309E1,1.035470813E1
1.270174288E1,2.441423035E-1,-5.098397827E-1,1.027388535E1,1.028942477E1
1.271167188E1,3.068618774E-1,-7.849676514E-1,1.042252625E1,1.045654779E1
1.272159988E1,2.983296204E-1,-1.168021088E0,1.050350784E1,1.057246191E1
1.273152788E1,3.791615295E-1,-1.261277161E0,1.041638901E1,1.049932110E1
1.274145688E1,5.062472534E-1,-1.258882141E0,1.026400589E1,1.035330321E1
1.275138488E1,6.036946106E-1,-1.032852173E0,1.005998016E1,1.013086530E1
1.276131388E1,7.532336426E-1,-8.533753967E-1,9.896969147E0,9.962209031E0
1.277124188E1,7.779322815E-1,-8.089178467E-1,9.796977081E0,9.861048963E0
1.278117088E1,6.403683472E-1,-8.644523621E-1,9.756710815E0,9.815842065E0
1.279109888E1,5.400769043E-1,-1.085692291E0,9.662107544E0,9.737901879E0
1.280102688E1,6.174659729E-1,-1.319506073E0,9.649982758E0,9.759330291E0
1.281095588E1,5.436694336E-1,-1.482367401E0,9.727222137E0,9.854533986E0
1.282088387E1,4.604425049E-1,-1.667232971E0,9.582922211E0,9.737765204E0
1.283081287E1,3.180885315E-1,-1.715881805E0,9.319619751E0,9.481600233E0
1.284074087E1,2.589614868E-1,-1.653611298E0,9.129814453E0,9.281971952E0
1.285066988E1,2.929408264E-1,-1.533411255E0,8.949888611E0,9.085024521E0
1.286059788E1,2.653981018E-1,-1.439107361E0,8.797804871E0,8.918679089E0
1.287052588E1,1.511856079E-1,-1.393152924E0,8.631051636E0,8.744071391E0
1.288045488E1,8.831634521E-2,-1.290316772E0,8.436456299E0,8.535016815E0
1.289038288E1,8.831634521E-2,-1.255738678E0,8.283773804E0,8.378877481E0
1.290031188E1,1.058299255E-1,-1.292711792E0,8.258177032E0,8.359413356E0
1.291023988E1,1.984872437E-1,-1.380579071E0,8.230035553E0,8.347387673E0
1.292016888E1,2.612068176E-1,-1.493294678E0,8.198301544E0,8.337284102E0
1.293009688E1,2.697390747E-1,-1.633403320E0,8.141868896E0,8.308477279E0
1.294002588E1,2.398013306E-1,-1.691781921E0,8.096213837E0,8.274557948E0
1.294995388E1,1.920506287E-1,-1.741478577E0,8.053552551E0,8.241925732E0
1.295988188E1,8.412506104E-2,-1.690434723E0,7.972421265E0,8.150101067E0
1.296981088E1,-1.511856079E-2,-1.651066589E0,7.903115387E0,8.073752676E0
1.297973888E1,-2.200424194E-2,-1.645528107E0,7.794591064E0,7.966423087E0
1.298966788E1,-1.065783691E-1,-1.573527832E0,7.767946472E0,7.926433068E0
1.299959588E1,-5.882766724E-2,-1.566342773E0,7.799381104E0,7.955327522E0
1.300952488E1,2.215393066E-2,-1.509760437E0,7.828420715E0,7.972705831E0
1.301945287E1,9.041198730E-2,-1.464853821E0,7.882308655E0,8.017777795E0
1.302938087E1,1.583706665E-1,-1.489851837E0,7.932154999E0,8.072411207E0
1.303930987E1,2.339634705E-1,-1.504521332E0,7.962990875E0,8.107252742E0
1.304923788E1,2.945874023E-1,-1.471440125E0,7.942333832E0,8.082857445E0
1.305916688E1,2.969824219E-1,-1.442250824E0,7.899672546E0,8.035739688E0
1.306909488E1,3.323089600E-1,-1.386716309E0,7.851622467E0,7.980061825E0
1.307902388E1,3.216810608E-1,-1.300944672E0,7.820636902E0,7.934626475E0
1.308895188E1,3.216810608E-1,-1.181343384E0,7.806865540E0,7.902290835E0
1.309887988E1,3.556604004E-1,-1.068328400E0,7.804620209E0,7.885424306E0
1.310880888E1,3.685336304E-1,-9.859996033E-1,7.831713867E0,7.902136063E0
1.311873688E1,3.134481812E-1,-9.418414307E-1,7.860903168E0,7.923327183E0
1.312866588E1,2.499801636E-1,-9.464817810E-1,7.954458618E0,8.014470023E0
1.313859388E1,1.848655701E-1,-9.568103027E-1,8.108787689E0,8.167135301E0
1.314852288E1,1.335223389E-1,-1.003513184E0,8.243956604E0,8.305882699E0
1.315845088E1,3.442840576E-2,-1.038390656E0,8.359965363E0,8.424278090E0
1.316837988E1,2.095642090E-2,-1.006656647E0,8.497828674E0,8.557271116E0
1.317830788E1,4.400848389E-2,-9.732760620E-1,8.617579651E0,8.672478428E0
1.318823588E1,1.146615601E-1,-9.005273438E-1,8.724008331E0,8.771112708E0
1.319816488E1,1.969903564E-1,-8.158035278E-1,8.901239777E0,8.940716423E0
1.320809288E1,2.357597351E-1,-8.137078857E-1,9.045090637E0,9.084677639E0
1.321802187E1,2.303709412E-1,-8.035290527E-1,9.148375854E0,9.186485208E0
1.322794987E1,1.760339355E-1,-7.316784668E-1,9.247918854E0,9.278488263E0
1.323787887E1,2.507286072E-1,-5.875282288E-1,9.366322632E0,9.388080416E0
1.324780688E1,4.655319214E-1,-4.297563171E-1,9.475445709E0,9.496603701E0
1.325773488E1,5.957611084E-1,-2.791694641E-1,9.537566528E0,9.560232328E0
1.326766388E1,6.096821594E-1,-1.381626892E-1,9.537566528E0,9.558032044E0
1.327759188E1,6.216572571E-1,-7.020401001E-2,9.511520691E0,9.532072818E0
1.328752088E1,6.301895142E-1,-4.236190796E-2,9.514963531E0,9.535903961E0
1.329744888E1,6.105802917E-1,-5.643264771E-2,9.535470886E0,9.555166035E0
1.330737788E1,4.366419983E-1,-1.187031555E-1,9.586365051E0,9.597038167E0
1.331730588E1,2.802172852E-1,-1.543290710E-1,9.722881165E0,9.728142543E0
1.332723388E1,2.457888794E-1,-1.670526123E-1,1.003348526E1,1.003788550E1
1.333716288E1,3.126997375E-1,-1.255888367E-1,1.050784882E1,1.051325071E1
1.334709088E1,4.164340210E-1,-5.343887329E-2,1.091305618E1,1.092112944E1
1.335701988E1,4.864883423E-1,7.304809570E-2,1.120779327E1,1.121858445E1
1.336694788E1,5.132826233E-1,2.070195007E-1,1.136990616E1,1.138336867E1
1.337687688E1,5.165757751E-1,3.248245239E-1,1.140388550E1,1.142019991E1
1.338680488E1,4.605921936E-1,4.035607910E-1,1.134880005E1,1.136530990E1
1.339673288E1,3.356021118E-1,5.179229736E-1,1.136032608E1,1.137707703E1
1.340666188E1,2.155517578E-1,5.267546082E-1,1.141286682E1,1.142704958E1
1.341658987E1,7.214996338E-2,5.179229736E-1,1.149534531E1,1.150723310E1
1.342651887E1,-1.556762695E-2,4.740641785E-1,1.157767410E1,1.158738611E1
1.343644687E1,-4.176315308E-2,4.156855774E-1,1.168006119E1,1.168753045E1
1.344637588E1,3.742218018E-3,3.576063538E-1,1.186253174E1,1.186792128E1
1.345630388E1,1.182540894E-2,2.332150269E-1,1.209814178E1,1.210039519E1
1.346623288E1,1.481918335E-2,1.327738953E-1,1.234647537E1,1.234719817E1
1.347616088E1,-2.993774414E-4,1.477427673E-1,1.251457581E1,1.251544788E1
1.348608888E1,6.900650024E-2,3.776646423E-1,1.259211456E1,1.259796577E1
1.349601788E1,2.164498901E-1,6.824308777E-1,1.263612305E1,1.265638843E1
1.350594588E1,4.399351501E-1,1.026415558E0,1.271201523E1,1.276097187E1
1.351587488E1,6.454577637E-1,1.309626617E0,1.274704239E1,1.283038687E1
1.352580296E1,7.336244202E-1,1.369951172E0,1.271964935E1,1.281422845E1
1.353573196E1,7.764353943E-1,1.377884674E0,1.274330017E1,1.284107150E1
1.354565996E1,7.306306458E-1,1.321302338E0,1.279419434E1,1.288297596E1
1.355558796E1,6.303392029E-1,1.255588989E0,1.274075546E1,1.281798272E1
1.356551696E1,5.312452698E-1,1.185534668E0,1.263058456E1,1.269721940E1
1.357544496E1,5.108876038E-1,1.163380737E0,1.254331604E1,1.260750721E1
1.358537396E1,4.728666687E-1,1.146166534E0,1.247475861E1,1.253622363E1
1.359530196E1,4.575984192E-1,1.126108246E0,1.243344452E1,1.249272023E1
1.360523096E1,4.111949158E-1,1.099313965E0,1.235381012E1,1.240943983E1
1.361515896E1,3.324586487E-1,1.076411591E0,1.225232117E1,1.230400604E1
1.362508696E1,1.809736633E-1,1.135388947E0,1.215921478E1,1.221345011E1
1.363501596E1,3.652404785E-2,1.264720001E0,1.209035797E1,1.215638131E1
1.364494396E1,4.894821167E-2,1.420545959E0,1.213930618E1,1.222223798E1
1.365487296E1,1.124162292E-1,1.552870789E0,1.227537323E1,1.237371541E1
1.366480096E1,8.906478882E-2,1.701661377E0,1.233075806E1,1.244793871E1
1.367472996E1,6.780899048E-2,1.792073364E0,1.236488708E1,1.249426099E1
1.368465796E1,9.265731812E-2,1.808688812E0,1.240665024E1,1.253813825E1
1.369458596E1,3.083587646E-2,1.752405853E0,1.241578125E1,1.253887958E1
1.370451496E1,-1.438508606E-1,1.638642426E0,1.235680389E1,1.246581103E1
1.371444296E1,-3.647914124E-1,1.535806274E0,1.225067459E1,1.235195538E1
1.372437196E1,-5.011578369E-1,1.491348724E0,1.219124817E1,1.229234771E1
1.373429996E1,-5.122348022E-1,1.513203278E0,1.218406311E1,1.228835068E1
1.374422896E1,-4.040098572E-1,1.653311920E0,1.226833786E1,1.238582973E1
1.375415696E1,-1.947450256E-1,1.867815857E0,1.235785172E1,1.249972643E1
1.376408496E1,3.098556519E-2,2.055076447E0,1.243479172E1,1.260350524E1
1.377401396E1,1.719923401E-1,2.230511627E0,1.251756958E1,1.271590782E1
1.378394196E1,2.270777893E-1,2.310894470E0,1.258927048E1,1.280162211E1
1.379387096E1,2.743794250E-1,2.342778168E0,1.269150787E1,1.290884448E1
1.380379896E1,3.475772095E-1,2.325114899E0,1.275722122E1,1.297203386E1
1.381372796E1,4.007167053E-1,2.346670074E0,1.269105881E1,1.291241294E1
1.382365596E1,3.574566650E-1,2.351609802E0,1.249631378E1,1.272068009E1
1.383358396E1,2.406994629E-1,2.290985870E0,1.220412140E1,1.241962687E1
1.384351296E1,1.871109009E-1,2.320624237E0,1.172541687E1,1.195431755E1
1.385344096E1,1.193019104E-1,2.439626770E0,1.120479950E1,1.146793545E1
1.386336996E1,-4.041595459E-2,2.577340393E0,1.066337540E1,1.097050098E1
1.387329796E1,-1.128652954E-1,2.830613708E0,1.025442581E1,1.063853191E1
1.388322696E1,-7.649093628E-2,2.993624725E0,1.009066635E1,1.052564427E1
1.389315496E1,2.350112915E-2,2.953957214E0,1.004725662E1,1.047252506E1
1.390308296E1,5.448669434E-2,2.830164642E0,1.000669098E1,1.039935888E1
1.391301196E1,-4.535568237E-2,2.703527985E0,1.001327728E1,1.037192570E1
1.392293996E1,-1.519340515E-1,2.451452179E0,9.969268799E0,1.026737659E1
1.393286896E1,-2.441423035E-1,2.111958160E0,9.888885956E0,1.011484247E1
1.394279696E1,-3.276686096E-1,1.913770294E0,9.712253265E0,9.904430673E0
1.395272596E1,-4.818479919E-1,1.752854919E0,9.418264618E0,9.592100201E0
1.396265396E1,-5.367837524E-1,1.678010559E0,9.148675232E0,9.316765250E0
1.397258296E1,-4.755610657E-1,1.741628265E0,8.976832581E0,9.156579630E0
1.398251096E1,-4.502636719E-1,1.921554108E0,8.814719696E0,9.032961357E0
1.399243896E1,-2.662962341E-1,2.213596802E0,8.671916656E0,8.953941198E0
1.400236796E1,3.772155762E-2,2.614463196E0,8.598868561E0,8.987623782E0
1.401229596E1,3.562591553E-1,3.056493988E0,8.550818481E0,9.087660468E0
1.402222496E1,6.517446899E-1,3.400328979E0,8.507558441E0,9.185072615E0
1.403215296E1,7.791297913E-1,3.537144470E0,8.418044586E0,9.164164386E0
1.404208196E1,7.143145752E-1,3.398083649E0,8.330027618E0,9.024775782E0
1.405200996E1,4.167333984E-1,3.181933136E0,8.298143921E0,8.897053318E0
1.406193796E1,2.369572449E-1,2.800825653E0,8.275989990E0,8.740296528E0
1.407186696E1,5.074447632E-2,2.448757782E0,8.245902557E0,8.601970627E0
1.408179496E1,-1.978884888E-1,2.123933258E0,8.182284851E0,8.455769493E0
1.409172396E1,-4.216731262E-1,1.890718231E0,8.037984924E0,8.268121026E0
1.410165196E1,-4.543052673E-1,1.777104492E0,7.901768188E0,8.111869954E0
1.411158096E1,-3.876937866E-1,1.801204376E0,7.726033630E0,7.942684643E0
1.412150896E1,-3.097059631E-1,1.858834534E0,7.534282379E0,7.766375897E0
1.413143696E1,-2.109114075E-1,1.972148895E0,7.376660156E0,7.638649746E0
1.414136596E1,-2.146536255E-1,2.089654541E0,7.128925323E0,7.431978777E0
1.415129396E1,-1.558259583E-1,2.165546722E0,6.834936676E0,7.171487552E0
1.416122296E1,-1.266366577E-1,2.198627930E0,6.632557526E0,6.988620819E0
1.417115096E1,-1.381626892E-1,2.198328552E0,6.559210052E0,6.919174363E0
1.418107996E1,-1.329235840E-1,2.162103882E0,6.606062622E0,6.952152562E0
1.419100796E1,-1.206491089E-1,2.115999756E0,6.771019592E0,7.094978329E0
1.420093596E1,-8.741821289E-2,2.156415710E0,6.933731232E0,7.261845458E0
1.421086496E1,7.634124756E-3,2.253563690E0,7.160659332E0,7.506906797E0
1.422079296E1,8.083190918E-2,2.360441437E0,7.507039032E0,7.869806389E0
1.423072196E1,1.312770081E-1,2.457140350E0,7.908354492E0,8.282321120E0
1.424064996E1,1.737886047E-1,2.616558838E0,8.261619873E0,8.667810886E0
1.425057896E1,2.927911377E-1,2.758014679E0,8.582552490E0,9.019566446E0
1.426050696E1,4.595443726E-1,2.909799042E0,8.869954834E0,9.346347428E0
1.427043496E1,6.750961304E-1,3.009042664E0,9.183253326E0,9.687220148E0
1.428036396E1,7.454498291E-1,2.970422974E0,9.419162750E0,9.904531034E0
1.429029196E1,6.306385803E-1,2.772384796E0,9.565857697E0,9.979451686E0
1.430022096E1,2.668949890E-1,2.467019806E0,9.437724152E0,9.758486400E0
1.431014896E1,-1.163081360E-1,2.208806763E0,9.115294647E0,9.379816171E0
1.432007796E1,-3.438349915E-1,2.065554657E0,8.753197632E0,9.000178183E0
1.433000596E1,-4.227209473E-1,2.113754425E0,8.461304626E0,8.731570692E0
1.433993396E1,-4.840933228E-1,2.166893921E0,8.287815399E0,8.580073409E0
1.434986296E1,-5.936654663E-1,2.163151703E0,8.096662903E0,8.401643538E0
1.435979096E1,-6.279441833E-1,2.210453339E0,7.938142548E0,8.264050155E0
1.436971996E1,-6.512956238E-1,2.288291473E0,7.802823944E0,8.157482783E0
1.437964796E1,-6.575825500E-1,2.300266571E0,7.769593048E0,8.129588996E0
1.438957596E1,-6.105802917E-1,2.276466064E0,7.874973907E0,8.220116792E0
1.439950496E1,-5.764512634E-1,2.307451630E0,8.104895782E0,8.446654055E0
1.440943296E1,-5.108876038E-1,2.344873810E0,8.378227386E0,8.715166864E0
1.441936196E1,-4.212240601E-1,2.325863342E0,8.675958252E0,8.992181136E0
1.442928996E1,-2.348616028E-1,2.443069611E0,9.058412933E0,9.385019657E0
1.443921896E1,-9.699829102E-2,2.503992920E0,9.349856873E0,9.679835368E0
1.444914696E1,6.421646118E-2,2.431842957E0,9.607022095E0,9.910240030E0
1.445907596E1,1.736389160E-1,2.303260345E0,9.887688446E0,1.015389292E1
1.446900396E1,9.744735718E-2,2.125729523E0,1.023391846E1,1.045281345E1
1.447893196E1,4.490661621E-3,1.908531189E0,1.055919205E1,1.073028649E1
1.448886096E1,-3.338058472E-2,1.629661102E0,1.090362579E1,1.102478866E1
1.449878896E1,-4.326004028E-2,1.448088684E0,1.127979355E1,1.137244806E1
1.450871796E1,-1.269360352E-1,1.364412689E0,1.158725418E1,1.166799872E1
1.451864596E1,-1.213975525E-1,1.271306305E0,1.185804108E1,1.192661290E1
1.452857550E1,-3.109034729E-1,1.221310272E0,1.189157135E1,1.195816578E1
1.453850350E1,-4.406835938E-1,1.193617859E0,1.170206543E1,1.177103483E1
1.454843150E1,-5.944139099E-1,1.321751404E0,1.150208130E1,1.159302501E1
1.455836050E1,-7.074288940E-1,1.470242615E0,1.127575195E1,1.139318441E1
1.456828850E1,-7.423063660E-1,1.636846161E0,1.112127319E1,1.126556708E1
1.457821750E1,-7.584727478E-1,1.745071106E0,1.114926498E1,1.131046700E1
1.458814550E1,-7.192543030E-1,1.774709473E0,1.118578903E1,1.134851518E1
1.459807450E1,-7.324269104E-1,1.803898773E0,1.117141891E1,1.133980161E1
1.460800250E1,-7.638615417E-1,1.749412079E0,1.128458359E1,1.144490078E1
1.461793050E1,-7.209008789E-1,1.663191376E0,1.146421005E1,1.160663671E1
1.462785950E1,-5.770500183E-1,1.611698456E0,1.171314240E1,1.183757844E1
1.463778750E1,-3.876937866E-1,1.616638184E0,1.199096466E1,1.210566227E1
1.464771650E1,-2.139051819E-1,1.633702698E0,1.218226685E1,1.229318370E1
1.465764450E1,-8.562194824E-2,1.591191101E0,1.232192642E1,1.242453585E1
1.466757350E1,-2.395019531E-3,1.522933044E0,1.254915390E1,1.264122598E1
1.467750150E1,6.197113037E-2,1.457369385E0,1.266561172E1,1.274933278E1
1.468742950E1,9.250762939E-2,1.420845337E0,1.263687149E1,1.271683452E1
1.469735850E1,6.930587769E-2,1.362616425E0,1.264899628E1,1.272236745E1
1.470728650E1,2.499801636E-2,1.301393738E0,1.264615219E1,1.271296251E1
1.471721550E1,-1.496887207E-4,1.215023346E0,1.278626083E1,1.284386032E1
1.472714350E1,1.227447510E-2,1.116677856E0,1.290226959E1,1.295050890E1
1.473707150E1,3.233276367E-2,1.023721161E0,1.300899765E1,1.304925555E1
1.474700050E1,4.385879517E-2,9.424401855E-1,1.306632843E1,1.310034563E1
1.475692850E1,1.390608215E-1,8.529263306E-1,1.313398773E1,1.316238789E1
1.476685750E1,2.333647156E-1,7.183561707E-1,1.324745178E1,1.326896655E1
1.477678550E1,2.683918762E-1,5.610333252E-1,1.326032501E1,1.327490158E1
1.478671450E1,2.537223816E-1,5.785469055E-1,1.304926392E1,1.306454669E1
1.479664250E1,2.478845215E-1,7.949967957E-1,1.266710861E1,1.269445183E1
1.480657150E1,2.498304749E-1,9.518705750E-1,1.233090775E1,1.237011555E1
1.481649950E1,2.767744446E-1,1.055006104E0,1.212478638E1,1.217374579E1
1.482642750E1,3.297642517E-1,1.009201355E0,1.190130112E1,1.194856477E1
1.483635650E1,1.818717957E-1,9.134005737E-1,1.169577850E1,1.173280072E1
1.484628450E1,1.037342834E-1,7.129673767E-1,1.153875504E1,1.156122619E1
1.485621350E1,8.292755127E-2,5.819897461E-1,1.138876694E1,1.140392921E1
1.486614150E1,4.176315308E-2,4.379891968E-1,1.130479156E1,1.131335012E1
1.487607050E1,1.040336609E-1,3.225791931E-1,1.137065460E1,1.137570510E1
1.488599850E1,1.428030396E-1,2.290237427E-1,1.150866760E1,1.151183194E1
1.489592650E1,2.794688416E-1,1.832189941E-1,1.158830200E1,1.159311931E1
1.490585550E1,3.023712158E-1,2.303709412E-1,1.174667267E1,1.175282170E1
1.491578350E1,3.700305176E-1,1.694476318E-1,1.184711380E1,1.185410226E1
1.492571250E1,3.873944092E-1,1.417552185E-1,1.211640381E1,1.212342403E1
1.493564050E1,5.206173706E-1,-6.331832886E-2,1.230695755E1,1.231812712E1
1.494556950E1,5.813909912E-1,-2.053729248E-1,1.240904526E1,1.242435502E1
1.495549750E1,3.878434753E-1,-2.302212524E-1,1.253253845E1,1.254065168E1
1.496542550E1,4.120930481E-1,-4.914280701E-1,1.252460495E1,1.254101477E1
1.497535450E1,4.067042542E-1,-5.779481506E-1,1.238973541E1,1.240987413E1
1.498528250E1,4.085005188E-1,-5.757028198E-1,1.208511887E1,1.210571784E1
1.499521150E1,4.002676392E-1,-5.239105225E-1,1.161779068E1,1.163648386E1
1.500513950E1,4.261637878E-1,-3.824546814E-1,1.117381393E1,1.118847644E1
1.501506750E1,4.731660461E-1,-3.040177917E-1,1.082518890E1,1.083978910E1
1.502499650E1,4.430786133E-1,-2.546205139E-1,1.061831909E1,1.063060914E1
1.503492450E1,4.751119995E-1,-1.892065430E-1,1.042162811E1,1.043416806E1
1.504485350E1,4.948709106E-1,-1.326242065E-1,1.026355682E1,1.027633617E1
1.505478150E1,5.691165161E-1,-2.034269714E-1,1.009515701E1,1.011323248E1
1.506471050E1,6.554869080E-1,-2.942880249E-1,1.004815475E1,1.007381172E1
1.507463850E1,6.855743408E-1,-3.674858093E-1,9.976902924E0,1.000717992E1
1.508456750E1,5.643264771E-1,-5.078938293E-1,9.855505371E0,9.884705693E0
1.509449550E1,5.011578369E-1,-5.869294739E-1,9.739197235E0,9.769729176E0
1.510442350E1,4.800517273E-1,-6.180647278E-1,9.622589722E0,9.654361016E0
1.511435250E1,5.545967102E-1,-5.352868652E-1,9.510772247E0,9.541954636E0
1.512428050E1,7.027885437E-1,-3.736230469E-1,9.534872131E0,9.568034933E0
1.513420950E1,8.354127502E-1,-3.835025024E-1,9.730365601E0,9.773689342E0
1.514413750E1,9.181906128E-1,-6.474037170E-1,9.790241089E0,9.854492689E0
1.515406550E1,7.521858215E-1,-9.610015869E-1,9.671088867E0,9.747782693E0
1.516399450E1,4.652325439E-1,-1.317260742E0,9.542506256E0,9.644223288E0
1.517392250E1,1.860630798E-1,-1.541045380E0,9.418563995E0,9.545616170E0
1.518385150E1,1.032852173E-1,-1.625320129E0,9.375004578E0,9.515410879E0
1.519377950E1,1.826202393E-1,-1.595083008E0,9.384434967E0,9.520780409E0
1.520370850E1,3.468287659E-1,-1.520987091E0,9.362580414E0,9.491659704E0
1.521363650E1,3.864962769E-1,-1.450034637E0,9.168134766E0,9.290138584E0
1.522356450E1,2.963836670E-1,-1.327289886E0,8.938063202E0,9.040935545E0
1.523349350E1,1.920506287E-1,-1.248703308E0,8.725205841E0,8.816198748E0
1.524342150E1,2.314187622E-1,-1.293310547E0,8.563542023E0,8.663743924E0
1.525335050E1,2.418969727E-1,-1.287472687E0,8.466843109E0,8.567586142E0
1.526327850E1,1.064286804E-1,-1.202449493E0,8.243208160E0,8.331127932E0
1.527320750E1,1.224453735E-1,-1.307680664E0,8.132737885E0,8.238109436E0
1.528313550E1,1.486408997E-1,-1.348545685E0,8.043673096E0,8.157287935E0
1.529306350E1,1.378633118E-1,-1.334774323E0,7.873027954E0,7.986563588E0
1.530299250E1,1.175056458E-1,-1.354533234E0,7.836204529E0,7.953280410E0
1.531292050E1,2.088157654E-1,-1.369352417E0,7.905061340E0,8.025504648E0
1.532284950E1,2.195933533E-1,-1.386267242E0,7.882458344E0,8.006441634E0
1.533277750E1,1.327738953E-1,-1.350641327E0,7.791447601E0,7.908762016E0
1.534270650E1,1.326242065E-1,-1.281934204E0,7.702682190E0,7.809753991E0
1.535263450E1,2.149530029E-1,-1.188378754E0,7.654482422E0,7.749164471E0
1.536256250E1,3.182382202E-1,-1.101858673E0,7.615713043E0,7.701587710E0
1.537249150E1,4.700225830E-1,-9.931846619E-1,7.630681915E0,7.709386713E0
1.538241950E1,5.550457764E-1,-9.424401855E-1,7.716603241E0,7.793730486E0
1.539234850E1,5.544470215E-1,-9.885443115E-1,7.844437408E0,7.925896139E0
1.540227650E1,4.927752686E-1,-1.033151550E0,7.907456360E0,7.989874572E0
1.541220550E1,4.107458496E-1,-1.078507233E0,7.916437683E0,8.000117224E0
1.542213350E1,3.149450684E-1,-1.085392914E0,7.951464844E0,8.031379790E0
1.543206150E1,3.258723450E-1,-1.003962250E0,7.947273560E0,8.017062431E0
1.544199050E1,4.330494690E-1,-9.086105347E-1,7.986042938E0,8.049222742E0
1.545191850E1,5.084925842E-1,-8.138575745E-1,8.056995392E0,8.113945009E0
1.546184750E1,5.845344543E-1,-7.858657837E-1,8.140521698E0,8.199229176E0
1.547177550E1,6.664141846E-1,-8.134085083E-1,8.269403687E0,8.335992958E0
1.548170450E1,6.906637573E-1,-8.765771484E-1,8.475974121E0,8.549125173E0
1.549163250E1,6.830296326E-1,-9.526190186E-1,8.611442413E0,8.690854556E0
1.550156050E1,6.554869080E-1,-9.746232605E-1,8.636739807E0,8.716239331E0
1.551148950E1,6.556365967E-1,-9.036708069E-1,8.710835724E0,8.782091965E0
1.552141700E1,6.315367126E-1,-8.213420105E-1,8.837322693E0,8.897848824E0
1.553134600E1,6.861730957E-1,-7.057823181E-1,9.005273438E0,9.058913394E0
1.554127400E1,7.605683899E-1,-5.623805237E-1,9.161398773E0,9.210101173E0
1.555120300E1,7.384144592E-1,-4.736151123E-1,9.255103912E0,9.296586235E0
1.556113100E1,7.556286621E-1,-4.087998962E-1,9.307195587E0,9.346763168E0
1.557105900E1,7.710466003E-1,-3.445834351E-1,9.368418274E0,9.406408005E0
1.558098800E1,7.774832153E-1,-2.842588806E-1,9.383686523E0,9.420130362E0
1.559091600E1,7.529342651E-1,-2.345622253E-1,9.478589172E0,9.511339661E0
1.560084500E1,7.530839539E-1,-1.685494995E-1,9.606722717E0,9.637669103E0
1.561077300E1,7.577243042E-1,-1.146615601E-1,9.750274200E0,9.780344594E0
1.562070100E1,7.623646545E-1,-9.475296021E-2,9.931846619E0,9.961513703E0
1.563063000E1,7.223977661E-1,-1.001417542E-1,1.016880386E1,1.019492319E1
1.564055800E1,7.390132141E-1,-8.487350464E-2,1.035666321E1,1.038334324E1
1.565048700E1,7.515870667E-1,-3.457809448E-2,1.049018555E1,1.051713229E1
1.566041500E1,8.211923218E-1,3.532653809E-2,1.059122543E1,1.062307211E1
1.567034400E1,8.705895996E-1,9.101074219E-2,1.065409470E1,1.068999266E1
1.568027200E1,8.824150085E-1,1.284329224E-1,1.072115524E1,1.075817461E1
1.569020000E1,9.196875000E-1,1.803749084E-1,1.079375427E1,1.083436623E1
1.570012900E1,9.809101868E-1,2.688409424E-1,1.084674408E1,1.089432501E1
1.571005700E1,1.015039215E0,3.435356140E-1,1.087548431E1,1.092815082E1
1.571998600E1,1.012045441E0,4.255650330E-1,1.091979218E1,1.097484409E1
1.572991400E1,9.837542725E-1,4.962181091E-1,1.098026642E1,1.103540917E1
1.573984300E1,9.475296021E-1,5.291496277E-1,1.103654938E1,1.108978060E1
1.574977100E1,9.128018188E-1,5.445675659E-1,1.113294891E1,1.118357333E1
1.575969900E1,8.584648132E-1,5.152285767E-1,1.127260849E1,1.131698390E1
1.576962800E1,8.062234497E-1,4.679269409E-1,1.144445114E1,1.148235228E1
1.577955600E1,7.267387390E-1,4.424798584E-1,1.159518768E1,1.162636293E1
1.578948500E1,7.095245361E-1,4.884342957E-1,1.168889282E1,1.172058909E1
1.579941300E1,7.622149658E-1,5.899232483E-1,1.178514267E1,1.182449021E1
1.580934200E1,8.189469910E-1,6.494993591E-1,1.193752579E1,1.198319847E1
1.581927000E1,8.557704163E-1,7.220983887E-1,1.209200455E1,1.214373678E1
1.582919800E1,9.207353210E-1,6.887178040E-1,1.227657074E1,1.233029906E1
1.583912700E1,9.589059448E-1,6.005511475E-1,1.245844254E1,1.250971433E1
1.584905500E1,9.065148926E-1,5.177732849E-1,1.253388565E1,1.257728699E1
1.585898400E1,8.524772644E-1,4.355941772E-1,1.253074219E1,1.256725744E1
1.586891200E1,7.613168335E-1,3.522175598E-1,1.247835114E1,1.250651461E1
1.587884100E1,7.535330200E-1,3.920347595E-1,1.239736954E1,1.242643451E1
1.588876900E1,7.568261719E-1,5.117857361E-1,1.229318619E1,1.232708956E1
1.589869700E1,7.903564453E-1,6.237528992E-1,1.219005066E1,1.223156025E1
1.590862600E1,8.086184692E-1,7.300318909E-1,1.204051163E1,1.208969523E1
1.591855400E1,8.388555908E-1,8.361611938E-1,1.191641968E1,1.197513683E1
1.592848300E1,8.560697937E-1,9.066645813E-1,1.183244431E1,1.189796766E1
1.593841100E1,8.074209595E-1,9.270222473E-1,1.178738800E1,1.185132122E1
1.594833900E1,7.547305298E-1,9.102571106E-1,1.176493469E1,1.182420714E1
1.595826800E1,7.050338745E-1,8.813671875E-1,1.178604080E1,1.183995940E1
1.596819600E1,6.143225098E-1,8.352630615E-1,1.178454391E1,1.183006897E1
1.597812500E1,5.170248413E-1,7.728428650E-1,1.184621567E1,1.188265233E1
1.598805300E1,4.643344116E-1,7.622149658E-1,1.196417038E1,1.199741435E1
1.599798200E1,4.272116089E-1,7.384144592E-1,1.203497314E1,1.206517071E1
1.600791000E1,4.096980286E-1,7.252418518E-1,1.208287354E1,1.211155073E1
1.601783800E1,3.646417236E-1,7.578739929E-1,1.208437042E1,1.211360166E1
1.602776700E1,3.065625000E-1,7.996371460E-1,1.203706879E1,1.206749457E1
1.603769500E1,3.088078308E-1,7.454498291E-1,1.204619980E1,1.207319292E1
1.604762400E1,3.321592712E-1,7.066804504E-1,1.200892731E1,1.203428694E1
1.605755200E1,3.971241760E-1,7.722441101E-1,1.193483139E1,1.196638078E1
1.606748100E1,4.658312988E-1,9.193881226E-1,1.180415314E1,1.184906345E1
1.607740900E1,5.596861267E-1,1.034349060E0,1.161240189E1,1.167180381E1
1.608733700E1,6.161187744E-1,1.126257935E0,1.137379807E1,1.144601860E1
1.609726600E1,5.764512634E-1,1.169517975E0,1.121602615E1,1.129155928E1
1.610719400E1,5.098397827E-1,1.025966492E0,1.105630829E1,1.111550704E1
1.611712300E1,4.287084961E-1,8.896000671E-1,1.086186264E1,1.090666032E1
1.612705100E1,3.303630066E-1,8.590635681E-1,1.078267731E1,1.082188800E1
1.613698000E1,3.962260437E-1,8.655001831E-1,1.087443649E1,1.091601826E1
1.614690800E1,5.219645691E-1,9.428892517E-1,1.109388016E1,1.114610533E1
1.615683600E1,6.077362061E-1,1.061742096E0,1.132859207E1,1.139445645E1
1.616676500E1,7.923023987E-1,1.329684906E0,1.153171967E1,1.163513487E1
1.617669300E1,9.680369568E-1,1.587149506E0,1.165641037E1,1.180373000E1
1.618662200E1,1.114582214E0,1.815724182E0,1.164817749E1,1.184141827E1
1.619655000E1,1.080602875E0,2.076182556E0,1.155941208E1,1.179399187E1
1.620647800E1,9.132508850E-1,2.207309875E0,1.145388153E1,1.170032676E1
1.621640700E1,8.744815063E-1,2.158661041E0,1.139595200E1,1.163151999E1
1.622633500E1,7.309300232E-1,2.290237427E0,1.130000153E1,1.155289923E1
1.623626400E1,6.526428223E-1,2.331102448E0,1.115854568E1,1.141810506E1
1.624619200E1,6.029461670E-1,2.223476257E0,1.113788864E1,1.137365175E1
1.625612100E1,5.209167480E-1,2.130968628E0,1.110061615E1,1.131530205E1
1.626604900E1,4.691244507E-1,2.051932983E0,1.093790451E1,1.113859335E1
1.627597700E1,5.143304443E-1,1.987866211E0,1.070708450E1,1.090219274E1
1.628590600E1,5.230123901E-1,2.012564850E0,1.044767395E1,1.065259828E1
1.629583400E1,5.210664368E-1,2.056423645E0,1.012389725E1,1.034377513E1
1.630576300E1,4.444258118E-1,2.113005981E0,9.833650818E0,1.006791920E1
1.631569100E1,4.394860840E-1,2.060465240E0,9.637259216E0,9.864858348E0
1.632562000E1,4.120930481E-1,1.932481384E0,9.477840729E0,9.681620208E0
1.633554800E1,2.056723022E-1,1.796114960E0,9.204359436E0,9.380221888E0
1.634547600E1,6.421646118E-2,1.668280792E0,8.839268646E0,8.995551943E0
1.635540500E1,1.032852173E-2,1.631457367E0,8.541238403E0,8.695660601E0
1.636533300E1,2.993774414E-4,1.743125153E0,8.315807190E0,8.496536624E0
1.637526200E1,3.517684937E-2,1.898651733E0,8.089178467E0,8.309086838E0
1.638519000E1,8.652008057E-2,1.992207184E0,7.856711884E0,8.105818701E0
1.639511800E1,3.547622681E-2,2.057022400E0,7.721692657E0,7.991066087E0
1.640504700E1,2.484832764E-2,1.905836792E0,7.666756897E0,7.900126115E0
1.641497500E1,1.916015625E-2,1.701062622E0,7.588469696E0,7.776815125E0
1.642490400E1,-1.225950623E-1,1.733096008E0,7.599097595E0,7.795186693E0
1.643483200E1,-1.556762695E-1,1.603615265E0,7.583380280E0,7.752643000E0
1.644476100E1,-1.634600830E-1,1.584904175E0,7.602241058E0,7.767413311E0
1.645468900E1,-1.549278259E-1,1.620979156E0,7.712861023E0,7.882880261E0
1.646461700E1,-3.817062378E-2,1.646126862E0,7.821535034E0,7.992971971E0
1.647454600E1,9.729766846E-3,1.736838226E0,7.901468811E0,8.090111932E0
1.648447400E1,5.313949585E-2,1.815873871E0,8.008945312E0,8.212394702E0
1.649440300E1,1.354682922E-1,1.881138153E0,8.169261932E0,8.384144138E0
