Time (s),Acceleration x (m/s^2),Acceleration y (m/s^2),Acceleration z (m/s^2),Absolute acceleration (m/s^2)
"0,001578249969","-0,7872129822","-0,362845459","9,731862488","9,770389377"
"0,01153025008","-0,7798782349","-0,3447331238","9,736951904","9,774215231"
"0,02148324996","-0,795894928","-0,340841217","9,722581787","9,761056197"
"0,03143525007","-0,8057743835","-0,357456665","9,725575562","9,765442521"
"0,04138824996","-0,8009843445","-0,3694317627","9,724078674","9,76400337"
"0,05134125007","-0,7978408813","-0,349972229","9,739945679","9,778832878"
"0,06129324995","-0,7982899475","-0,3191363525","9,739197235","9,77706897"
"0,07124625007","-0,8008346558","-0,3146456909","9,742939453","9,780859228"
"0,08119824994","-0,7954458618","-0,337098999","9,736502838","9,774756128"
"0,09115125006","-0,7824229431","-0,3502716064","9,733209686","9,770887711"
"0,1011032499","-0,7861651611","-0,3468287659","9,742939453","9,780757386"
"0,1110562501","-0,7833210754","-0,3373983765","9,739346924","9,776620483"
"0,1210092499","-0,7834707642","-0,3402424622","9,735455017","9,772854023"
"0,13096125","-0,7824229431","-0,3641926575","9,729766846","9,767967282"
"0,1409142499","-0,7743397522","-0,3748205566","9,713301086","9,751323525"
"0,15086625","-0,7670050049","-0,3788621521","9,710906067","9,748514238"
"0,1608192499","-0,7777825928","-0,3796105957","9,708660736","9,747160779"
"0,17077225","-0,7794291687","-0,3882925415","9,704918518","9,743907038"
"0,1807242499","-0,7767347717","-0,4129911804","9,70237381","9,742173072"
"0,19067725","-0,7685018921","-0,4308041382","9,697434082","9,737372086"
"0,2006292499","-0,7770341492","-0,44697052","9,688003693","9,729387456"
"0,21058225","-0,76640625","-0,4453239441","9,696236572","9,736667583"
"0,2205342499","-0,7789801025","-0,4577481079","9,70581665","9,747780269"
"0,23048725","-0,7845185852","-0,4749623108","9,710307312","9,753518683"
"0,2404402499","-0,7777825928","-0,4935237122","9,704319763","9,747939961"
"0,25039225","-0,7767347717","-0,5087919617","9,720037079","9,764287326"
"0,2603452501","-0,7893086243","-0,516126709","9,72812027","9,773725946"
"0,27029725","-0,79215271","-0,5287005615","9,740394745","9,78684423"
"0,2802502501","-0,7943980408","-0,5361849976","9,736053772","9,78311329"
"0,29020325","-0,8029302979","-0,5516029358","9,730964355","9,77960276"
"0,3001552501","-0,8005352783","-0,5721102905","9,739047546","9,788626769"
"0,31010825","-0,7952961731","-0,5760021973","9,73740097","9,786789678"
"0,3200602501","-0,8062234497","-0,5801934814","9,740095367","9,790611753"
"0,33001325","-0,8029302979","-0,5833369446","9,743538208","9,793953025"
"0,3399652501","-0,8056246948","-0,5921685791","9,737850037","9,789045822"
"0,34991825","-0,8167016602","-0,6017486572","9,735754395","9,788463448"
"0,3598712501","-0,8110134888","-0,6045927429","9,739197235","9,79159017"
"0,36982325","-0,8156538391","-0,5993536377","9,730215912","9,782720361"
"0,3797762501","-0,8165519714","-0,6015989685","9,740095367","9,792759377"
"0,38972825","-0,807121582","-0,6042933655","9,740544434","9,792590137"
"0,3996812501","-0,8102650452","-0,6086343384","9,745035095","9,797585121"
"0,40963425","-0,8114625549","-0,6032455444","9,7502742","9,802562096"
"0,4195862501","-0,8072712708","-0,5980064392","9,750872955","9,802490602"
"0,42953925","-0,8090675354","-0,5870791626","9,758357391","9,809423591"
"0,4394912501","-0,8038284302","-0,5789959717","9,757608948","9,807767782"
"0,44944425","-0,8089178467","-0,5806425476","9,75506424","9,805751994"
"0,4593962501","-0,8012837219","-0,5719606018","9,749226379","9,798806536"
"0,46934925","-0,8009843445","-0,5658233643","9,751920776","9,801106612"
"0,4793022501","-0,7976911926","-0,554147644","9,742490387","9,790786985"
"0,48925425","-0,7899073792","-0,5387297058","9,735455017","9,782293583"
"0,4992072501","-0,7846682739","-0,5287005615","9,733059998","9,778940919"
"0,50915925","-0,7806266785","-0,5227130127","9,7210849","9,766375916"
"0,5191122501","-0,7723937988","-0,5053491211","9,709558868","9,753332935"
"0,52906525","-0,7833210754","-0,4869374084","9,706714783","9,750436494"
"0,5390172501","-0,7777825928","-0,4799020386","9,705367584","9,748303015"
"0,548969625","-0,7628137207","-0,4682263184","9,700876923","9,742080565"
"0,5589216249","-0,7694000244","-0,4613406372","9,708511047","9,749871709"
"0,568874625","-0,7659571838","-0,4427792358","9,708361359","9,748590879"
"0,5788266251","-0,7714956665","-0,4352947998","9,714947662","9,755249623"
"0,588779625","-0,7616162109","-0,4149371338","9,720635834","9,759251666"
"0,5987326251","-0,7667056274","-0,4165837097","9,713600464","9,752713134"
"0,608684625","-0,7685018921","-0,4031117249","9,709259491","9,747964612"
"0,6186376251","-0,762664032","-0,3930825806","9,723180542","9,760963589"
"0,628589625","-0,7688012695","-0,3746708679","9,714648285","9,752221539"
"0,6385426251","-0,7744894409","-0,3713777161","9,715097351","9,752992968"
"0,648495625","-0,7744894409","-0,3656895447","9,720635834","9,758295125"
"0,6584476251","-0,7786807251","-0,3649411011","9,715995483","9,753978363"
"0,668400625","-0,7888595581","-0,3592529297","9,709558868","9,748173957"
"0,6783526251","-0,77927948","-0,3514691162","9,698032837","9,735638035"
"0,688305625","-0,7888595581","-0,3544628906","9,707912292","9,746358521"
"0,6982576251","-0,7863148499","-0,3495231628","9,717043304","9,755069865"
"0,708210625","-0,7882608032","-0,3460803223","9,710157623","9,748245368"
"0,7181636251","-0,7978408813","-0,3559597778","9,721533966","9,760711044"
"0,728115625","-0,7960446167","-0,3671864319","9,735005951","9,774397873"
"0,7380686251","-0,790506134","-0,3632945251","9,742789764","9,781555871"
"0,748020625","-0,7976911926","-0,3652404785","9,735455017","9,774906457"
"0,7579736251","-0,7988887024","-0,3652404785","9,747729492","9,787229129"
"0,767926625","-0,8146060181","-0,3715274048","9,748927002","9,789953691"
"0,7778786251","-0,8114625549","-0,3737727356","9,750872955","9,791715934"
"0,787831625","-0,8196954346","-0,3766168213","9,754465485","9,796087879"
"0,7977836251","-0,8164022827","-0,3993695068","9,737550659","9,779872266"
"0,807736625","-0,8155041504","-0,4017645264","9,731712799","9,77408286"
"0,8176886251","-0,807121582","-0,4140390015","9,735754395","9,777923459"
"0,827641625","-0,8030799866","-0,426612854","9,740394745","9,782751442"
"0,8375946251","-0,809815979","-0,4364923096","9,727371826","9,770777354"
"0,847546625","-0,8092172241","-0,4408332825","9,718989258","9,762577462"
"0,8574996251","-0,8111631775","-0,4498146057","9,722432098","9,766575899"
"0,8674516249","-0,7987390137","-0,4668791199","9,71524704","9,759200027"
"0,8774046251","-0,7943980408","-0,4757107544","9,703870697","9,747947244"
"0,8873576249","-0,7936495972","-0,4906796265","9,714199219","9,758909398"
"0,8973096251","-0,7960446167","-0,4966671753","9,714797974","9,760003329"
"0,9072626249","-0,7949967957","-0,5072950745","9,714947662","9,76061352"
"0,917214625","-0,7878117371","-0,5191204834","9,722132721","9,767804157"
"0,9271676249","-0,7891589355","-0,520916748","9,716145172","9,762049124"
"0,937119625","-0,7852670288","-0,5310955811","9,717941437","9,764071517"
"0,9470726249","-0,7860154724","-0,5400769043","9,721234589","9,767901787"
"0,957025625","-0,7893086243","-0,5454656982","9,717941437","9,765189537"
"0,9669776249","-0,7818241882","-0,5465135193","9,715696106","9,762411429"
"0,976930625","-0,7884104919","-0,5519023132","9,704469452","9,752072324"
"0,9868826249","-0,7843688965","-0,5584886169","9,713301086","9,760909901"
"0,996835625","-0,7812254333","-0,5685177612","9,717043304","9,764960635"
"1,006788625","-0,7875123596","-0,5634283447","9,713600464","9,761744782"
"1,016740625","-0,7806266785","-0,5574407959","9,714498596","9,761741711"
"1,026693625","-0,7813751221","-0,570763092","9,704918518","9,753038554"
"1,036645625","-0,7833210754","-0,5774990845","9,718839569","9,767442842"
"1,046598625","-0,7900570679","-0,569715271","9,717791748","9,766485659"
"1,056550625","-0,7897576904","-0,5641767883","9,719737701","9,768076251"
"1,066503625","-0,7870632935","-0,5638774109","9,739496613","9,787503289"
"1,076456625","-0,7940986633","-0,5692662048","9,736802216","9,785702534"
"1,086408625","-0,7924520874","-0,5664221191","9,738448792","9,787042413"
"1,096361625","-0,8012837219","-0,5592370605","9,749376068","9,798221033"
"1,106313625","-0,7966433716","-0,5592370605","9,743837585","9,792331573"
"1,116266625","-0,7973918152","-0,5444178772","9,760303345","9,807943001"
"1,126218625","-0,8036787415","-0,5463638306","9,766889648","9,815118255"
"1,136171625","-0,8008346558","-0,5382806396","9,769434357","9,816971521"
"1,146124625","-0,8075706482","-0,5292993164","9,75970459","9,807352436"
"1,156076625","-0,8009843445","-0,5221142578","9,75506424","9,801808891"
"1,166029625","-0,8000862122","-0,5125341797","9,756261749","9,80242177"
"1,175981625","-0,7994874573","-0,5066963196","9,738748169","9,784637819"
"1,185934625","-0,8000862122","-0,500559082","9,729617157","9,77528247"
"1,195887625","-0,8026309204","-0,4857398987","9,7409935","9,786067341"
"1,205839625","-0,799637146","-0,4743635559","9,733808441","9,778111634"
"1,215792625","-0,7973918152","-0,47271698","9,73395813","9,777997542"
"1,225744625","-0,8021818542","-0,4528083801","9,726324005","9,76984697"
"1,235697625","-0,7979905701","-0,44697052","9,720935211","9,763869775"
"1,245649625","-0,800684967","-0,4399351501","9,731263733","9,774054082"
"1,255602625","-0,7993377686","-0,4402345276","9,727222137","9,769933358"
"1,265555625","-0,7957452393","-0,4240681458","9,726773071","9,768477807"
"1,275507625","-0,7933502197","-0,4113446045","9,716893616","9,757900927"
"1,285460625","-0,799637146","-0,4026626587","9,7210849","9,762225587"
"1,295412625","-0,793200531","-0,4113446045","9,709109802","9,750137672"
"1,305365625","-0,8005352783","-0,3968247986","9,709708557","9,750731609"
"1,315317625","-0,7955955505","-0,380508728","9,702972565","9,742968529"
"1,325270625","-0,7972421265","-0,3887416077","9,70821167","9,748645489"
"1,335223625","-0,7955955505","-0,392334137","9,69414093","9,734642609"
"1,345175625","-0,7966433716","-0,384250946","9,69294342","9,733213324"
"1,355128625","-0,7942483521","-0,3811074829","9,696086884","9,736024559"
"1,365080625","-0,7942483521","-0,37676651","9,699380035","9,739135307"
"1,375033625","-0,7966433716","-0,3866459656","9,698032837","9,73837649"
"1,384986625","-0,7909552002","-0,3788621521","9,69294342","9,732538148"
"1,394938625","-0,7966433716","-0,3758683777","9,689799957","9,729755439"
"1,404891625","-0,7988887024","-0,3808081055","9,710007935","9,750256"
"1,414843625","-0,7903564453","-0,3830534363","9,713301086","9,752928342"
"1,424796625","-0,7940986633","-0,3784130859","9,717941437","9,757672618"
"1,434748625","-0,7999365234","-0,3826043701","9,727222137","9,767555224"
"1,444701625","-0,7918533325","-0,3953279114","9,730066223","9,770235645"
"1,454654625","-0,8017327881","-0,4029620361","9,733658752","9,774930515"
"1,464606625","-0,8041278076","-0,3975732422","9,742789764","9,783999101"
"1,474559625","-0,8051756287","-0,3993695068","9,741592255","9,782965984"
"1,484511625","-0,8057743835","-0,417481842","9,747879181","9,790031255"
"1,494464625","-0,8084687805","-0,4153862","9,745933228","9,7882267"
"1,504416625","-0,8084687805","-0,4264631653","9,751022644","9,793770224"
"1,514369625","-0,8015830994","-0,4318519592","9,736652527","9,77913258"
"1,524322625","-0,809815979","-0,443228302","9,73859848","9,782257081"
"1,534274625","-0,8096662903","-0,4532574463","9,747879181","9,791943134"
"1,544227625","-0,8053253174","-0,4575984192","9,735754395","9,779716704"
"1,554180333","-0,7976911926","-0,4628375244","9,741891632","9,78544748"
"1,564133333","-0,8059240723","-0,4718188477","9,743987274","9,788637016"
"1,574085333","-0,8021818542","-0,4796026611","9,739047546","9,783790756"
"1,584038333","-0,8014334106","-0,5092410278","9,754016418","9,800125419"
"1,593991333","-0,7896080017","-0,5019062805","9,757010193","9,801767117"
"1,603943333","-0,7878117371","-0,5092410278","9,752519531","9,797530861"
"1,613896333","-0,7979905701","-0,522563324","9,750423889","9,796970317"
"1,623848333","-0,7957452393","-0,5227130127","9,743837585","9,790240562"
"1,633801333","-0,7882608032","-0,5328918457","9,735305328","9,781692014"
"1,643754333","-0,7917036438","-0,5370831299","9,72572525","9,772665173"
"1,653706333","-0,7822732544","-0,546663208","9,729766846","9,776459225"
"1,663659333","-0,7791297913","-0,5511538696","9,723629608","9,770352428"
"1,673611333","-0,7828720093","-0,5505551147","9,719138947","9,766148749"
"1,683564333","-0,77927948","-0,5572911072","9,720935211","9,768031084"
"1,693516333","-0,773890686","-0,5661227417","9,714199219","9,761407082"
"1,703469333","-0,7807763672","-0,5671705627","9,710157623","9,757994428"
"1,713422333","-0,7815248108","-0,5682183838","9,711804199","9,759753786"
"1,723374333","-0,7756869507","-0,5739065552","9,710307312","9,758131331"
"1,733327333","-0,7836204529","-0,5712121582","9,708361359","9,756670775"
"1,743279333","-0,7801776123","-0,5646258545","9,711504822","9,759139581"
"1,753232333","-0,7870632935","-0,5644761658","9,715995483","9,764152303"
"1,763184333","-0,7852670288","-0,5611830139","9,713151398","9,760987694"
"1,773137333","-0,7866142273","-0,5656736755","9,722432098","9,770590287"
"1,783090333","-0,7957452393","-0,5655239868","9,723629608","9,772512503"
"1,793042333","-0,7976911926","-0,5577401733","9,735005951","9,783543642"
"1,802995333","-0,7970924377","-0,5400769043","9,738448792","9,785929914"
"1,812947333","-0,7973918152","-0,5324427795","9,741143188","9,788217388"
"1,822900333","-0,8042774963","-0,5330415344","9,729766846","9,777492441"
"1,832852333","-0,8131091309","-0,5281018066","9,734856262","9,783019187"
"1,842805333","-0,8069718933","-0,5147795105","9,734107819","9,781056007"
"1,852758333","-0,8065228271","-0,5153782654","9,743089142","9,789988757"
"1,862710333","-0,8092172241","-0,5044509888","9,746232605","9,792770461"
"1,872663333","-0,8178991699","-0,4917274475","9,735005951","9,781671422"
"1,882615333","-0,8235873413","-0,4800517273","9,740095367","9,786633923"
"1,892568333","-0,8198451233","-0,4572990417","9,741292877","9,78642199"
"1,902521333","-0,8152047729","-0,4604425049","9,72931778","9,774261638"
"1,912473333","-0,8159532166","-0,4510121155","9,739047546","9,783569834"
"1,922426333","-0,8122109985","-0,4363426208","9,741741943","9,785275555"
"1,932378333","-0,8105644226","-0,4270619202","9,732311554","9,775340646"
"1,942331333","-0,798589325","-0,4204756165","9,738897858","9,780627594"
"1,952283333","-0,8035290527","-0,4182302856","9,744586029","9,786599634"
"1,962236333","-0,8044271851","-0,3993695068","9,744586029","9,785885549"
"1,972189333","-0,8042774963","-0,3950285339","9,74443634","9,785547988"
"1,982141333","-0,7978408813","-0,3932322693","9,737700348","9,778240627"
"1,992094333","-0,8018824768","-0,3770658875","9,729168091","9,769437339"
"2,002046333","-0,7920030212","-0,3674858093","9,732910309","9,771993537"
"2,011999333","-0,7927514648","-0,3742218018","9,718390503","9,757848677"
"2,021951333","-0,7884104919","-0,3713777161","9,713450775","9,752468327"
"2,031904333","-0,7851173401","-0,3694317627","9,712402954","9,751085078"
"2,041857333","-0,7833210754","-0,3637435913","9,709109802","9,747446561"
"2,051809333","-0,7852670288","-0,3573069763","9,708810425","9,747066864"
"2,061762333","-0,7747888184","-0,3582051086","9,697733459","9,735226904"
"2,071714333","-0,7789801025","-0,3613485718","9,698781281","9,736721271"
"2,081667333","-0,7783813477","-0,3619473267","9,693991241","9,731924249"
"2,091619333","-0,7729925537","-0,3700305176","9,696086884","9,733886219"
"2,101572333","-0,7777825928","-0,3718267822","9,704768829","9,742984088"
"2,111525333","-0,7798782349","-0,3734733582","9,709259491","9,747687535"
"2,121477333","-0,7734416199","-0,3835025024","9,704020386","9,742345598"
"2,131430333","-0,7707472229","-0,3835025024","9,706415405","9,744517714"
"2,141382333","-0,7699987793","-0,4071533203","9,716594238","9,755556137"
"2,151335333","-0,7717950439","-0,4017645264","9,722132721","9,760991085"
"2,161287333","-0,7771838379","-0,4206253052","9,729916534","9,769965002"
"2,171240333","-0,783021698","-0,4261637878","9,726174316","9,766944527"
"2,181193333","-0,7794291687","-0,4390370178","9,725126495","9,766183937"
"2,191145333","-0,7855664063","-0,4522096252","9,728569336","9,770704655"
"2,201098333","-0,7876620483","-0,457149353","9,736502838","9,779002227"
"2,211050333","-0,7961943054","-0,4743635559","9,726473694","9,770528986"
"2,221003333","-0,7908055115","-0,4784051514","9,733359375","9,777143221"
"2,230955333","-0,7915539551","-0,4852908325","9,72931778","9,773519802"
"2,240908333","-0,7973918152","-0,5086422729","9,731114044","9,776969429"
"2,250861333","-0,8090675354","-0,5237608337","9,742939453","9,790494619"
"2,260813333","-0,8068222046","-0,522563324","9,744735718","9,79203292"
"2,270766333","-0,8008346558","-0,5301974487","9,744735718","9,791951781"
"2,280718333","-0,8017327881","-0,5415737915","9,763446808","9,811267564"
"2,290671333","-0,8137078857","-0,5510041809","9,75266922","9,802055042"
"2,300623333","-0,8146060181","-0,5545967102","9,7502742","9,79994936"
"2,310576333","-0,8075706482","-0,5619314575","9,749974823","9,799487046"
"2,320529333","-0,8059240723","-0,5743556213","9,743687897","9,79381702"
"2,330481333","-0,8128097534","-0,5794450378","9,749974823","9,800940021"
"2,340434333","-0,8164022827","-0,5751040649","9,748328247","9,799344926"
"2,350386333","-0,8047265625","-0,5785469055","9,744136963","9,794412004"
"2,360339333","-0,806073761","-0,586330719","9,732012177","9,782923879"
"2,370292333","-0,800684967","-0,5864804077","9,728419647","9,778916326"
"2,380244333","-0,7915539551","-0,5842350769","9,726623383","9,776251363"
"2,390197333","-0,7952961731","-0,5813909912","9,724378052","9,774151625"
"2,400149333","-0,7960446167","-0,5764512634","9,721833344","9,771388164"
"2,410102333","-0,7926017761","-0,5745053101","9,718091125","9,767270297"
"2,420054333","-0,783021698","-0,5692662048","9,724228363","9,772297798"
"2,430007333","-0,7854167175","-0,5617817688","9,718390503","9,766247598"
"2,439959333","-0,7943980408","-0,5619314575","9,706565094","9,755216099"
"2,449912333","-0,7881111145","-0,5553451538","9,713151398","9,760883026"
"2,459865333","-0,7752378845","-0,5394781494","9,71285202","9,75866409"
"2,469817333","-0,7852670288","-0,5294490051","9,705217896","9,751318626"
"2,479770333","-0,7855664063","-0,5215155029","9,711355133","9,757023702"
"2,489722333","-0,7779322815","-0,5155279541","9,724677429","9,769355087"
"2,499675333","-0,7723937988","-0,5016069031","9,709109802","9,752692696"
"2,509627333","-0,7815248108","-0,4879852295","9,713301086","9,756901589"
"2,519580333","-0,7767347717","-0,4731660461","9,715845795","9,758322731"
"2,529533333","-0,7825726318","-0,462538147","9,712702332","9,755149822"
"2,539485333","-0,7914042664","-0,4502636719","9,714648285","9,757225496"
"2,549438458","-0,7816744995","-0,4519102478","9,716594238","9,758454872"
"2,559390458","-0,775537262","-0,440533905","9,719138947","9,759978997"
"2,569343458","-0,7747888184","-0,4324507141","9,71524704","9,755682261"
"2,579295458","-0,7846682739","-0,4170327759","9,728868713","9,769365746"
"2,589248458","-0,7903564453","-0,4138893127","9,727222137","9,76805089"
"2,599201458","-0,7940986633","-0,4011657715","9,722432098","9,763053445"
"2,609153458","-0,7984396362","-0,3936813354","9,731413422","9,772046768"
"2,619106458","-0,7915539551","-0,3899391174","9,73395813","9,773870833"
"2,629058458","-0,786763916","-0,3855981445","9,740245056","9,779573464"
"2,639011458","-0,790506134","-0,3839515686","9,746531982","9,786071962"
"2,648964458","-0,8014334106","-0,3709286499","9,741292877","9,781240744"
"2,658916458","-0,8026309204","-0,3682342529","9,741292877","9,781237129"
"2,668869458","-0,7954458618","-0,3670367432","9,741442566","9,780754232"
"2,678821458","-0,7918533325","-0,3686833191","9,740694122","9,779779194"
"2,688774458","-0,7924520874","-0,3724255371","9,744885406","9,784143942"
"2,698726458","-0,7972421265","-0,366587677","9,733808441","9,773280325"
"2,708679458","-0,807121582","-0,3736230469","9,727521515","9,768096757"
"2,718631458","-0,7957452393","-0,3788621521","9,728868713","9,768706847"
"2,728584458","-0,789458313","-0,3799099731","9,727820892","9,767193831"
"2,738537458","-0,7972421265","-0,3830534363","9,724677429","9,76481828"
"2,748489458","-0,7970924377","-0,3926335144","9,719138947","9,759671065"
"2,758442458","-0,7825726318","-0,3957769775","9,720935211","9,760411913"
"2,768394458","-0,7930508423","-0,4023632813","9,717941437","9,758545569"
"2,778347458","-0,7917036438","-0,412691803","9,715546417","9,756482531"
"2,788299458","-0,7973918152","-0,4150868225","9,723030853","9,764499974"
"2,798252458","-0,7912545776","-0,4275109863","9,722132721","9,76364246"
"2,808205458","-0,7860154724","-0,4321513367","9,713600464","9,754927425"
"2,818157458","-0,7896080017","-0,4382885742","9,709558868","9,751467125"
"2,828110458","-0,7943980408","-0,453407135","9,708660736","9,751653171"
"2,838062458","-0,7937992859","-0,4537065125","9,715396729","9,758324677"
"2,848015458","-0,7915539551","-0,466280365","9,698182526","9,741597371"
"2,857967458","-0,784069519","-0,4818479919","9,713151398","9,756651709"
"2,867920458","-0,7896080017","-0,4881349182","9,710457001","9,754728682"
"2,877873458","-0,7930508423","-0,4879852295","9,701924744","9,746507218"
"2,887825458","-0,7845185852","-0,5035528564","9,704319763","9,748992612"
"2,897778458","-0,7888595581","-0,5078938293","9,708061981","9,75329293"
"2,907730458","-0,7973918152","-0,5233117676","9,718091125","9,764782846"
"2,917683458","-0,7937992859","-0,5278024292","9,713001709","9,759666742"
"2,927635458","-0,7899073792","-0,5269042969","9,724228363","9,770475887"
"2,937588458","-0,7927514648","-0,5343887329","9,729916534","9,776773597"
"2,947541458","-0,7966433716","-0,5426216125","9,723030853","9,770691268"
"2,957493458","-0,7993377686","-0,549357605","9,732910309","9,781118429"
"2,967446458","-0,7997868347","-0,5517526245","9,730664978","9,779055724"
"2,977398458","-0,8020321655","-0,5592370605","9,745184784","9,794111913"
"2,987351458","-0,8030799866","-0,5635780334","9,743388519","9,792659368"
"2,997303458","-0,8054750061","-0,5580395508","9,757758636","9,806836989"
"3,007256458","-0,8018824768","-0,559536438","9,749825134","9,798733933"
"3,017209458","-0,8021818542","-0,5593867493","9,740095367","9,789068752"
"3,027161458","-0,7982899475","-0,5556445313","9,750573578","9,798963863"
"3,037114458","-0,8102650452","-0,5625302124","9,749825134","9,799594881"
"3,047066458","-0,7994874573","-0,5489085388","9,745484161","9,793617428"
"3,057019458","-0,8005352783","-0,550405426","9,742939453","9,791254876"
"3,066971458","-0,8014334106","-0,5536985779","9,736502838","9,785109358"
"3,076924458","-0,7975415039","-0,5396278381","9,730964355","9,778493644"
"3,086877458","-0,8041278076","-0,5385800171","9,74219101","9,790146865"
"3,096829458","-0,8017327881","-0,5339396667","9,734107819","9,781652317"
"3,106782458","-0,7878117371","-0,5258564758","9,732461243","9,778444365"
"3,116734458","-0,7957452393","-0,5212161255","9,737251282","9,783605637"
"3,126687458","-0,786763916","-0,5141807556","9,737999725","9,783251911"
"3,136639458","-0,7804769897","-0,5017565918","9,744735718","9,788808825"
"3,146592458","-0,7949967957","-0,5007087708","9,739496613","9,784708654"
"3,156545458","-0,7828720093","-0,4926255798","9,727671204","9,77154827"
"3,166497458","-0,7783813477","-0,4867877197","9,730066223","9,773281359"
"3,176450458","-0,7855664063","-0,4770579529","9,734257507","9,777549186"
"3,186402458","-0,7849676514","-0,4686753845","9,726174316","9,76904794"
"3,196355458","-0,7870632935","-0,4593946838","9,721384277","9,764006574"
"3,206307458","-0,7843688965","-0,4528083801","9,715546417","9,757669403"
"3,216260458","-0,7834707642","-0,4427792358","9,714348907","9,755944577"
"3,226212458","-0,7797285461","-0,4354444885","9,704020386","9,74502951"
"3,236165458","-0,7885601807","-0,4285588074","9,706565094","9,7479688"
"3,246118458","-0,7848179626","-0,4237687683","9,70821167","9,749097037"
"3,256070458","-0,7426057434","-0,362845459","9,691745911","9,726924432"
"3,266023458","-0,7170089722","-0,4043092346","9,708511047","9,743344117"
"3,275975458","-0,7176077271","-0,5574407959","9,710307312","9,75273137"
"3,285928458","-0,7376660156","-0,4848417664","9,686207428","9,726347569"
"3,295880458","-0,7339237976","-0,3442840576","9,681118011","9,714999825"
"3,305833458","-0,7478448486","-0,3290158081","9,735604706","9,769827138"
"3,315786458","-0,7415579224","-0,4258644104","9,764943695","9,802315748"
"3,325738458","-0,7723937988","-0,4725672913","9,730664978","9,772704484"
"3,335691458","-0,8005352783","-0,4305047607","9,678573303","9,721161055"
"3,345643458","-0,8156538391","-0,3119512939","9,709708557","9,748899685"
"3,355596458","-0,8099656677","-0,3137475586","9,785600739","9,824075719"
"3,365548458","-0,8195457458","-0,398770752","9,784103851","9,826462309"
"3,375501458","-0,7979905701","-0,4162843323","9,711504822","9,753122961"
"3,385454458","-0,8146060181","-0,4146377563","9,67782486","9,720895095"
"3,395406458","-0,8090675354","-0,3996688843","9,741592255","9,783299298"
"3,405359458","-0,8140072632","-0,3623963928","9,785750427","9,826232767"
"3,415311458","-0,8213420105","-0,3251239014","9,776320038","9,81614699"
"3,425264458","-0,8202941895","-0,3719764709","9,709858246","9,751543273"
"3,435216458","-0,8159532166","-0,4655319214","9,709708557","9,755046893"
"3,445169458","-0,7975415039","-0,4664300537","9,747280426","9,790970593"
"3,455122458","-0,8120613098","-0,3857478333","9,769434357","9,810713155"
"3,465074458","-0,8128097534","-0,3347039795","9,742490387","9,782065497"
"3,475027458","-0,8020321655","-0,3945794678","9,738448792","9,77938308"
"3,484979458","-0,8029302979","-0,5078938293","9,726174316","9,772467449"
"3,494932458","-0,8015830994","-0,5016069031","9,72452774","9,770393274"
"3,504884458","-0,7936495972","-0,4114942932","9,724976807","9,765980807"
"3,514837458","-0,7924520874","-0,3875440979","9,743538208","9,783389369"
"3,524790458","-0,8003855896","-0,4590953064","9,748477936","9,792048185"
"3,534742458","-0,7746391296","-0,510737915","9,721384277","9,765563541"
"3,544695458","-0,7771838379","-0,5053491211","9,696835327","9,741047573"
"3,554646833","-0,7789801025","-0,48559021","9,707313538","9,75061762"
"3,564599833","-0,7768844604","-0,4733157349","9,722881165","9,76534666"
"3,574551833","-0,7806266785","-0,4743635559","9,723180542","9,765993992"
"3,584504833","-0,7758366394","-0,5192701721","9,703421631","9,748228318"
"3,594456833","-0,7753875732","-0,5445675659","9,678573303","9,724842462"
"3,604409833","-0,7804769897","-0,5415737915","9,698332214","9,744747008"
"3,614362833","-0,7795788574","-0,5197192383","9,716145172","9,761215513"
"3,624314833","-0,7822732544","-0,5170248413","9,722581787","9,767694853"
"3,634267833","-0,7930508423","-0,539178772","9,711055756","9,758291207"
"3,644219833","-0,7878117371","-0,5730084229","9,703421631","9,75219859"
"3,654172833","-0,7854167175","-0,5818400574","9,72228241","9,771294312"
"3,664124833","-0,7809260559","-0,5483097839","9,722132721","9,768846082"
"3,674077833","-0,793200531","-0,5343887329","9,730066223","9,776958991"
"3,684030833","-0,7976911926","-0,5507048035","9,729018402","9,777187023"
"3,693982833","-0,7960446167","-0,5797444153","9,720186768","9,769944801"
"3,703935833","-0,8021818542","-0,5769003296","9,718839569","9,768938135"
"3,713887833","-0,8068222046","-0,5535488892","9,732910309","9,781969205"
"3,723840833","-0,7988887024","-0,5445675659","9,739047546","9,786921074"
"3,733792833","-0,8027806091","-0,554147644","9,748328247","9,797011786"
"3,743745833","-0,8066725159","-0,5634283447","9,7502742","9,799796887"
"3,753697833","-0,809815979","-0,5620811462","9,746232605","9,795957693"
"3,763650833","-0,8104147339","-0,5477110291","9,753417664","9,802342349"
"3,773603833","-0,8110134888","-0,540226593","9,758956146","9,807487584"
"3,783555833","-0,8205935669","-0,5260061646","9,756112061","9,804681475"
"3,793508833","-0,8198451233","-0,5307962036","9,757010193","9,805770675"
"3,803460833","-0,8187973022","-0,5279521179","9,733509064","9,782145018"
"3,813413833","-0,8129594421","-0,5239105225","9,743837585","9,791718755"
"3,823365833","-0,8117619324","-0,4944218445","9,757908325","9,804090232"
"3,833318833","-0,8069718933","-0,4884342957","9,743987274","9,789538278"
"3,843271833","-0,8068222046","-0,4778063965","9,741442566","9,786468428"
"3,853223833","-0,800684967","-0,4879852295","9,741741943","9,786764639"
"3,863176833","-0,7979905701","-0,493074646","9,734257507","9,779349711"
"3,873128833","-0,7937992859","-0,4550537109","9,741592255","9,784467836"
"3,883081833","-0,7994874573","-0,4385879517","9,726174316","9,768828303"
"3,893033833","-0,7866142273","-0,4348457336","9,715097351","9,756585945"
"3,902986833","-0,7937992859","-0,4328997803","9,728419647","9,770346379"
"3,912939833","-0,7846682739","-0,4351451111","9,718390503","9,759721796"
"3,922891833","-0,7812254333","-0,422870636","9,711804199","9,752347079"
"3,932844833","-0,7843688965","-0,4013154602","9,711804199","9,751688544"
"3,942796833","-0,7753875732","-0,3978726196","9,702224121","9,741287461"
"3,952749833","-0,7822732544","-0,4011657715","9,689350891","9,729152384"
"3,962701833","-0,7753875732","-0,4028123474","9,695188751","9,734483479"
"3,972654833","-0,7647596741","-0,3848497009","9,69294342","9,730679257"
"3,982606833","-0,7774832153","-0,3754193115","9,696835327","9,735195693"
"3,992559833","-0,7668553162","-0,3727249146","9,706864471","9,744239776"
"4,002512833","-0,7762857056","-0,3710783386","9,692045288","9,730162409"
"4,012464833","-0,7860154724","-0,3879931641","9,705068207","9,744573255"
"4,022417833","-0,7807763672","-0,3935316467","9,70821167","9,747504948"
"4,032369833","-0,7759863281","-0,3788621521","9,710606689","9,748926792"
"4,042322833","-0,7800279236","-0,3701802063","9,715546417","9,753836124"
"4,052274833","-0,7861651611","-0,3829037476","9,715546417","9,754819995"
"4,062227833","-0,7891589355","-0,3905378723","9,714797974","9,754618974"
"4,072180833","-0,7810757446","-0,3972738647","9,717791748","9,757222059"
"4,082132833","-0,7893086243","-0,3947291565","9,723330231","9,763297086"
"4,092085833","-0,7978408813","-0,4002676392","9,715097351","9,756017671"
"4,102037833","-0,798589325","-0,4076023865","9,73859848","9,779784506"
"4,111990833","-0,8065228271","-0,4150868225","9,736053772","9,778216565"
"4,121942833","-0,8014334106","-0,4242178345","9,741741943","9,783853657"
"4,131895833","-0,8059240723","-0,4324507141","9,742789764","9,785626174"
"4,141847833","-0,8146060181","-0,4403842163","9,744885406","9,788785053"
"4,151800833","-0,8078700256","-0,4516108704","9,747280426","9,791122615"
"4,161753833","-0,8069718933","-0,4592449951","9,751022644","9,795129004"
"4,171705833","-0,8108638","-0,4703219604","9,746232605","9,791207936"
"4,181658833","-0,8132588196","-0,4751119995","9,742340698","9,787763973"
"4,191610833","-0,8084687805","-0,4806504822","9,746232605","9,791511459"
"4,201563833","-0,8156538391","-0,4896318054","9,747579803","9,793893124"
"4,211515833","-0,8005352783","-0,500559082","9,748927002","9,794538979"
"4,221468833","-0,8068222046","-0,5025050354","9,736652527","9,782937995"
"4,231421833","-0,8024812317","-0,5221142578","9,731263733","9,778244897"
"4,241373833","-0,7982899475","-0,5242098999","9,742340698","9,789038009"
"4,251326833","-0,7961943054","-0,5319937134","9,733658752","9,780646982"
"4,261278833","-0,7991880798","-0,5285508728","9,730365601","9,777427184"
"4,271231833","-0,7930508423","-0,5382806396","9,73156311","9,778650022"
"4,281183833","-0,7930508423","-0,5457650757","9,717192993","9,764764658"
"4,291136833","-0,7893086243","-0,5495072937","9,708960114","9,756478507"
"4,301088833","-0,7882608032","-0,5545967102","9,699529724","9,747297547"
"4,311041833","-0,7882608032","-0,5538482666","9,706265717","9,753958025"
"4,320994833","-0,7863148499","-0,5460644531","9,710007935","9,757086221"
"4,330946833","-0,7800279236","-0,5581892395","9,709858246","9,757118732"
"4,340899833","-0,7804769897","-0,5563929749","9,712702332","9,759882379"
"4,350851833","-0,7782316589","-0,560584259","9,716145172","9,763369103"
"4,360804833","-0,7767347717","-0,5578898621","9,714199219","9,761158971"
"4,370756833","-0,7767347717","-0,5569917297","9,711504822","9,758426236"
"4,380709833","-0,7788304138","-0,5502557373","9,703721008","9,750464584"
"4,390662833","-0,7759863281","-0,5489085388","9,708361359","9,754780143"
"4,400614833","-0,7843688965","-0,5430706787","9,715546417","9,762274454"
"4,410567833","-0,7869136047","-0,5421725464","9,713151398","9,760045808"
"4,420519833","-0,7861651611","-0,536484375","9,721234589","9,767715857"
"4,430472833","-0,7833210754","-0,5298980713","9,712253265","9,758188734"
"4,440424833","-0,793200531","-0,5295986938","9,718240814","9,76492941"
"4,450377833","-0,7987390137","-0,5251080322","9,728569336","9,77541732"
"4,460329833","-0,7918533325","-0,5113366699","9,739197235","9,784705395"
"4,470282833","-0,7960446167","-0,5001100159","9,735455017","9,780740332"
"4,480235833","-0,7966433716","-0,4924758911","9,746531982","9,791427825"
"4,490187833","-0,8002359009","-0,4857398987","9,743089142","9,787957232"
"4,500140833","-0,807121582","-0,4712200928","9,743987274","9,788706841"
"4,510092833","-0,8020321655","-0,4679269409","9,750872955","9,794985176"
"4,520045833","-0,7990383911","-0,4722679138","9,752070465","9,796140959"
"4,529997833","-0,8027806091","-0,4562512207","9,742041321","9,785703397"
"4,539950833","-0,8008346558","-0,4418811035","9,746981049","9,789802583"
"4,549902625","-0,8030799866","-0,4375401306","9,743987274","9,786810861"
"4,559855625","-0,8048762512","-0,4315525818","9,743238831","9,78594739"
"4,569808625","-0,7966433716","-0,4243675232","9,738748169","9,780487941"
"4,579760625","-0,8090675354","-0,4194277954","9,740843811","9,78338122"
"4,589713625","-0,8002359009","-0,4147874451","9,740245056","9,781860757"
"4,599665625","-0,8027806091","-0,4128414917","9,739047546","9,780794544"
"4,609618625","-0,8026309204","-0,4038601685","9,737101593","9,778469556"
"4,619570625","-0,790506134","-0,3972738647","9,739646301","9,779746241"
"4,629523625","-0,7978408813","-0,4017645264","9,730664978","9,771581536"
"4,639476625","-0,7973918152","-0,392334137","9,720037079","9,760577882"
"4,649428625","-0,7852670288","-0,3887416077","9,722731476","9,762134587"
"4,659381625","-0,7924520874","-0,3867956543","9,717492371","9,75742021"
"4,669333625","-0,7897576904","-0,3888912964","9,715696106","9,755496116"
"4,679286625","-0,7807763672","-0,3827540588","9,699529724","9,738428481"
"4,689238625","-0,7897576904","-0,3838018799","9,701775055","9,741430096"
"4,699191625","-0,7966433716","-0,393381958","9,702224121","9,74282007"
"4,709143625","-0,7849676514","-0,3972738647","9,697284393","9,737110729"
"4,719096625","-0,7795788574","-0,398770752","9,695787506","9,735248157"
"4,729049625","-0,7801776123","-0,4023632813","9,699080658","9,738723681"
"4,739001625","-0,7764353943","-0,4107458496","9,705666962","9,745334024"
"4,748954625","-0,7864645386","-0,4110452271","9,705367584","9,745852687"
"4,758906625","-0,7878117371","-0,4177812195","9,696086884","9,737006179"
"4,768859625","-0,7833210754","-0,4204756165","9,707313538","9,747939668"
"4,778811625","-0,7851173401","-0,4309538269","9,70821167","9,7494361"
"4,788764625","-0,7891589355","-0,4333488464","9,717642059","9,759258693"
"4,798716625","-0,7929011536","-0,4412823486","9,719588013","9,761855023"
"4,808669625","-0,7987390137","-0,4498146057","9,716294861","9,759441737"
"4,818622625","-0,7912545776","-0,4541555786","9,724078674","9,766782846"
"4,828574625","-0,7955955505","-0,4602928162","9,739047546","9,78232533"
"4,838527625","-0,8038284302","-0,4674778748","9,740095367","9,78438212"
"4,848479625","-0,7997868347","-0,4749623108","9,732610931","9,776960863"
"4,858432625","-0,8024812317","-0,4854405212","9,733209686","9,778292255"
"4,868384625","-0,8042774963","-0,4990621948","9,749376068","9,795216133"
"4,878337625","-0,8102650452","-0,5080435181","9,749226379","9,796022287"
"4,888290625","-0,8054750061","-0,5117857361","9,744586029","9,791203782"
"4,898242625","-0,8107141113","-0,5179229736","9,747430115","9,794789197"
"4,908195625","-0,8288264465","-0,5204676819","9,749226379","9,79822713"
"4,918147625","-0,8137078857","-0,5246589661","9,752818909","9,800758349"
"4,928100625","-0,8074209595","-0,5261558533","9,751621399","9,799126925"
"4,938052625","-0,8153544617","-0,5342390442","9,754615173","9,803200061"
"4,948005625","-0,8075706482","-0,5409750366","9,750573578","9,798903481"
"4,957957625","-0,8027806091","-0,5408253479","9,750573578","9,798501613"
"4,967910625","-0,8057743835","-0,5453160095","9,754166107","9,802571007"
"4,977863625","-0,8044271851","-0,5420228577","9,749226379","9,79736224"
"4,987815625","-0,8026309204","-0,5454656982","9,74802887","9,796214374"
"4,997768625","-0,7896080017","-0,5495072937","9,743238831","9,790614995"
"5,007720625","-0,7967930603","-0,5489085388","9,740394745","9,788333339"
"5,017673625","-0,7991880798","-0,5469625854","9,731862488","9,779929301"
"5,027625625","-0,7954458618","-0,5490582275","9,735604706","9,783465544"
"5,037578625","-0,7806266785","-0,5433700562","9,744735718","9,791041989"
"5,047530625","-0,7885601807","-0,5313949585","9,731862488","9,778208182"
"5,057483625","-0,8035290527","-0,5385800171","9,732161865","9,780117686"
"5,067436625","-0,8032296753","-0,5194198608","9,715097351","9,762074136"
"5,077388625","-0,8342152405","-0,5071453857","9,708511047","9,75747397"
"5,087341625","-0,8442443848","-0,526305542","9,725575562","9,776326821"
"5,097293625","-0,8545729065","-0,5426216125","9,718839569","9,771416255"
"5,107246625","-0,8770262146","-0,5122348022","9,704918518","9,75792001"
"5,117198625","-0,8909472656","-0,5116360474","9,706265717","9,760489365"
"5,127151625","-0,8855584717","-0,4834945679","9,699230347","9,751566547"
"5,137103625","-0,8975335693","-0,4647834778","9,71988739","9,772297635"
"5,147056625","-0,8994795227","-0,4336482239","9,705217896","9,756452664"
"5,157009625","-0,9268725586","-0,4489164734","9,700727234","9,755241033"
"5,166961625","-0,9428892517","-0,442180481","9,713151398","9,768821515"
"5,176914625","-0,9665400696","-0,4309538269","9,717043304","9,774500063"
"5,186866625","-1,009201355","-0,4309538269","9,731413422","9,793090205"
"5,196819625","-1,064885559","-0,4252656555","9,728868713","9,796209398"
"5,206771625","-1,121018829","-0,4111949158","9,707912292","9,781069755"
"5,216724625","-1,165626068","-0,3820056152","9,734556885","9,811534547"
"5,226676625","-1,21801712","-0,4083508301","9,754465485","9,83869468"
"5,236629625","-1,251248016","-0,4034111023","9,740843811","9,82916071"
"5,246582625","-1,273252258","-0,362845459","9,725874939","9,815572906"
"5,256534625","-1,274749146","-0,3806584167","9,732311554","9,822819066"
"5,266487625","-1,267564087","-0,4565505981","9,74563385","9,838319791"
"5,276439625","-1,281036072","-0,4840933228","9,735904083","9,831745932"
"5,286392625","-1,287472687","-0,473764801","9,7011763","9,797696699"
"5,296344625","-1,310375061","-0,477507019","9,695787506","9,795580183"
"5,306297625","-1,361718292","-0,453407135","9,718989258","9,824388374"
"5,316249625","-1,401236115","-0,4020639038","9,721983032","9,830669973"
"5,326202625","-1,442849579","-0,4085005188","9,710906067","9,826005507"
"5,336155625","-1,490600281","-0,4963677979","9,703122253","9,829488881"
"5,346107625","-1,534758453","-0,5626799011","9,731114044","9,86745523"
"5,356060625","-1,564696198","-0,5957611084","9,715396729","9,85860736"
"5,366012625","-1,604064331","-0,5592370605","9,705517273","9,853062164"
"5,375965625","-1,658401337","-0,5297483826","9,704619141","9,859541623"
"5,385917625","-1,705104218","-0,5665718079","9,714498596","9,879264496"
"5,395870625","-1,741179199","-0,5680686951","9,704020386","9,875343978"
"5,405822625","-1,75165741","-0,5315446472","9,689201202","9,860601571"
"5,415775625","-1,747466125","-0,5191204834","9,669292603","9,839631262"
"5,425728625","-1,761836243","-0,5087919617","9,671088867","9,843418922"
"5,435680625","-1,757345581","-0,4692741394","9,67782486","9,847272502"
"5,445633625","-1,763482819","-0,4863386536","9,673034821","9,844490824"
"5,455585625","-1,786235504","-0,5173242188","9,671088867","9,848259821"
"5,465538625","-1,848056946","-0,5358856201","9,663604431","9,853311041"
"5,475490625","-1,911674652","-0,4785548401","9,674831085","9,873493365"
"5,485443625","-1,968706055","-0,4569996643","9,697583771","9,905946861"
"5,495395625","-2,025737457","-0,4815486145","9,716294861","9,936895246"
"5,505348625","-2,058818665","-0,4761598206","9,719737701","9,946796643"
"5,515301625","-2,098037109","-0,3927832031","9,696835327","9,928980497"
"5,525253625","-2,123783569","-0,4129911804","9,706415405","9,944622586"
"5,535206625","-2,139051819","-0,4731660461","9,716893616","9,960795668"
"5,545158625","-2,11899353","-0,445922699","9,71285202","9,951305191"
"5,555112458","-2,118245087","-0,3549119568","9,682614899","9,917961283"
"5,565064458","-2,115251312","-0,4004173279","9,695937195","9,932060221"
"5,575017458","-2,153871002","-0,3932322693","9,703122253","9,947078635"
"5,584969458","-2,139800262","-0,2995271301","9,702822876","9,940484567"
"5,594922458","-2,134710846","-0,37676651","9,691296844","9,930769252"
"5,604875458","-2,150278473","-0,4674778748","9,725575562","9,97141179"
"5,614827458","-2,171085205","-0,4568499756","9,703721008","9,954120969"
"5,624780458","-2,17288147","-0,3752696228","9,718989258","9,96599184"
"5,634732458","-2,188449097","-0,367635498","9,723928986","9,973929026"
"5,644685458","-2,19159256","-0,3990701294","9,750124512","10,00136305"
"5,654637458","-2,189945984","-0,3616479492","9,735005951","9,984838182"
"5,664590458","-2,206711121","-0,38963974","9,713301086","9,968430724"
"5,674542458","-2,22781723","-0,4281097412","9,694889374","9,956772948"
"5,684495458","-2,249073029","-0,4538562012","9,707163849","9,974635077"
"5,694448458","-2,288890228","-0,4595443726","9,691596222","9,968813211"
"5,704400458","-2,336341553","-0,4822970581","9,674531708","9,964319649"
"5,714353458","-2,411185913","-0,5318440247","9,665849762","9,976238128"
"5,724305458","-2,443518677","-0,5014572144","9,681118011","9,99731408"
"5,734258458","-2,486179962","-0,5360353088","9,678124237","10,00672341"
"5,744210458","-2,531984711","-0,5468128967","9,663005676","10,00418061"
"5,754163458","-2,575544128","-0,4927752686","9,6520784","10,00194343"
"5,764115458","-2,60817627","-0,4713697815","9,657766571","10,01485038"
"5,774068458","-2,645149384","-0,4966671753","9,660161591","10,02807137"
"5,784020458","-2,653531952","-0,4724176025","9,655970306","10,0250772"
"5,793973458","-2,635120239","-0,3870950317","9,628128204","9,989722416"
"5,803926458","-2,602188721","-0,3680845642","9,610614624","9,963472579"
"5,813878458","-2,60817627","-0,3872447205","9,628277893","9,982799062"
"5,823831458","-2,662513275","-0,3951782227","9,619595947","9,989082488"
"5,833783458","-2,730322266","-0,3614982605","9,626631317","10,01286029"
"5,843736458","-2,79304184","-0,3580554199","9,632618866","10,03576766"
"5,853688458","-2,899021454","-0,4014651489","9,625733185","10,06082695"
"5,863641458","-2,978206787","-0,4406835938","9,613907776","10,07428114"
"5,873593458","-3,086282043","-0,4465214539","9,600286102","10,09405823"
"5,883546458","-3,172802124","-0,4704716492","9,609417114","10,13059298"
"5,893499458","-3,260370026","-0,495769043","9,592502289","10,14356445"
"5,903451458","-3,343297577","-0,483943634","9,577533417","10,1558351"
"5,913404458","-3,373983765","-0,4742138672","9,523944855","10,11504675"
"5,923356458","-3,328777771","-0,4785548401","9,487420807","10,06582981"
"5,933309458","-3,284619598","-0,4610412598","9,4437117","10,00924451"
"5,943261458","-3,220552826","-0,4388873291","9,423803101","9,968583022"
"5,953214458","-3,179987183","-0,4565505981","9,414073334","9,947136958"
"5,963166458","-3,156036987","-0,4520599365","9,36422699","9,892101635"
"5,973119458","-3,162623291","-0,4324507141","9,322613525","9,853949596"
"5,983072458","-3,178490295","-0,4308041382","9,312434692","9,849356967"
"5,993024458","-3,228486328","-0,38963974","9,310488739","9,862055752"
"6,002977458","-3,256777496","-0,3514691162","9,278006287","9,839285078"
"6,012929458","-3,300037537","-0,3516188049","9,257947998","9,834809844"
"6,022882458","-3,371888123","-0,3778143311","9,260941772","9,862931395"
"6,032834458","-3,454815674","-0,4294569397","9,243877258","9,87772501"
"6,042787458","-3,575315094","-0,4189787292","9,234596558","9,911417395"
"6,052739458","-3,679199066","-0,3936813354","9,20510788","9,920962748"
"6,062692458","-3,789070587","-0,408949585","9,266929321","10,01999375"
"6,072644458","-3,870201874","-0,4225712585","9,2366922","10,02364763"
"6,082597458","-3,922892303","-0,4183799744","9,210646362","10,01998664"
"6,092550458","-3,934268646","-0,430355072","9,133406982","9,954034276"
"6,102502458","-3,931873627","-0,513432312","9,131461029","9,955241006"
"6,112455458","-3,95133316","-0,5619314575","9,105115814","9,941425184"
"6,122407458","-3,936064911","-0,4692741394","9,104966125","9,930419596"
"6,132360458","-3,953129425","-0,4252656555","9,114695892","9,944132156"
"6,142312458","-3,966002655","-0,4117936707","9,092541962","9,928397172"
"6,152265458","-3,961511993","-0,3326083374","9,101672974","9,932001636"
"6,162218458","-3,995341644","-0,3020718384","9,083560638","9,927994567"
"6,172170458","-4,023034058","-0,3017724609","9,129664764","9,981314961"
"6,182123458","-4,102668457","-0,2999761963","9,150920563","10,03300659"
"6,192075458","-4,133803711","-0,2891986084","9,132359161","10,02855687"
"6,202028458","-4,154311066","-0,2749781799","9,119186554","10,02464348"
"6,211980458","-4,155358887","-0,3086581421","9,103618927","10,01190066"
"6,221933458","-4,135150909","-0,2842588806","9,053922272","9,957599342"
"6,231885458","-4,113146667","-0,2457888794","9,011710052","9,909051708"
"6,241838458","-4,13036087","-0,2516267395","8,966953125","9,875699736"
"6,251790458","-4,139641571","-0,2499801636","8,940009155","9,855094424"
"6,261743458","-4,151167603","-0,2698887634","8,878786469","9,804992685"
"6,271696458","-4,128414917","-0,3240760803","8,82250351","9,746045516"
"6,281648458","-4,064797211","-0,3989204407","8,793463898","9,695706328"
"6,291601458","-4,019740906","-0,5054988098","8,701105957","9,598077457"
"6,301553458","-3,978426819","-0,5165757751","8,662635956","9,546517281"
"6,311506458","-3,976929932","-0,5435197449","8,643625488","9,530144121"
"6,321458458","-4,018244019","-0,5989045715","8,597521362","9,509066476"
"6,331411458","-4,097579041","-0,5137316895","8,567733307","9,511052952"
"6,341363458","-4,19712204","-0,4222718811","8,577612762","9,558744042"
"6,351316458","-4,314028931","-0,4043092346","8,60949646","9,638347414"
"6,361269458","-4,430636444","-0,3939807129","8,620872803","9,700783885"
"6,371221458","-4,559668121","-0,3471281433","8,620872803","9,758612566"
"6,381174458","-4,695435791","-0,2893482971","8,629255371","9,828269836"
"6,391126458","-4,794679413","-0,254021759","8,632099457","9,877581625"
"6,401079458","-4,813989258","-0,1797761536","8,615184631","9,870573351"
"6,411031458","-4,770579529","-0,162412262","8,603957977","9,839354636"
"6,420984458","-4,666845245","-0,2171983337","8,535101166","9,730085897"
"6,430936458","-4,582121429","-0,2586621094","8,471333771","9,634637447"
"6,440889458","-4,512516174","-0,2647993469","8,404123535","9,542652321"
"6,450841458","-4,448150024","-0,2856060791","8,347092133","9,462640041"
"6,460794458","-4,41821228","-0,3634442139","8,330626373","9,436738166"
"6,470747458","-4,425696716","-0,4450245667","8,279283142","9,398476879"
"6,480699458","-4,46266983","-0,4634362793","8,231382751","9,374745714"
"6,490652458","-4,495601349","-0,3984713745","8,19650528","9,356917747"
"6,500604458","-4,531526642","-0,346230011","8,230783997","9,402149442"
"6,510557458","-4,567302246","-0,3080593872","8,240663452","9,426753658"
"6,520509458","-4,601281586","-0,2429447937","8,236023102","9,437313756"
"6,530462458","-4,694537659","-0,2481838989","8,233478394","9,481057195"
"6,540414458","-4,790937195","-0,2505789185","8,220904541","9,518358076"
"6,550367458","-4,854255524","-0,2571652222","8,236472168","9,563963844"
"6,560318833","-4,902006226","-0,2865042114","8,217611389","9,572924665"
"6,570271833","-4,939578094","-0,2921923828","8,215815125","9,590851177"
"6,580224833","-4,949756927","-0,3176394653","8,170459442","9,558106296"
"6,590176833","-4,917573853","-0,3260220337","8,10983551","9,48990279"
"6,600129833","-4,884941711","-0,3481759644","8,105344849","9,46997873"
"6,610081833","-4,848567352","-0,3673361206","8,07241333","9,423767727"
"6,620034833","-4,772375793","-0,407303009","8,029901733","9,349908465"
"6,629986833","-4,739743652","-0,4381388855","7,986192627","9,297118277"
"6,639939833","-4,765639801","-0,4462220764","7,995922394","9,31907784"
"6,649891833","-4,808151398","-0,4805007935","7,959248657","9,311221191"
"6,659844833","-4,844376068","-0,4427792358","7,957302704","9,32645159"
"6,669797833","-4,868925018","-0,4200265503","7,983348541","9,360379643"
"6,679749833","-4,862189026","-0,468974762","7,976313171","9,353202193"
"6,689702833","-4,841531982","-0,4833448792","7,971223755","9,338868366"
"6,699654833","-4,829556885","-0,4152365112","7,962092743","9,321585804"
"6,709607833","-4,843328247","-0,3917353821","7,963140564","9,328606153"
"6,719559833","-4,88973175","-0,383203125","8,005502472","9,388524434"
"6,729512833","-4,888683929","-0,2908451843","8,040529633","9,414559908"
"6,739464833","-4,882546692","-0,2627037048","8,019273834","9,392392042"
"6,749417833","-4,869823151","-0,2769241333","8,02331543","9,389646158"
"6,759369833","-4,852608948","-0,2667453003","8,017178192","9,375186015"
"6,769322833","-4,897365875","-0,2296224976","8,035440216","9,413034499"
"6,779275833","-4,977299652","-0,17902771","8,050109711","9,466246833"
"6,789227833","-5,12025238","-0,1490899658","8,09232193","9,577311025"
"6,799180833","-5,27473114","-0,1649569702","8,108488312","9,674584338"
"6,809132833","-5,392536163","-0,2495310974","8,105045471","9,738248001"
"6,819085833","-5,489684143","-0,3412902832","8,093669128","9,785734056"
"6,829037833","-5,533542938","-0,3800596619","8,100854187","9,817758469"
"6,838990833","-5,545817413","-0,40251297","8,090525665","9,817062341"
"6,848942833","-5,522316284","-0,3876937866","8,111631775","9,820634077"
"6,858895833","-5,503305817","-0,3830534363","8,089777222","9,791710798"
"6,868847833","-5,48654068","-0,3915856934","8,074958038","9,770384604"
"6,878800833","-5,483846283","-0,386945343","8,066874847","9,762006277"
"6,888753833","-5,451962585","-0,4059558105","8,046816559","9,728306784"
"6,898705833","-5,369334412","-0,4409829712","8,017028503","9,659035357"
"6,908658833","-5,340444489","-0,4385879517","7,992329865","9,622372025"
"6,918610833","-5,344336395","-0,4082011414","7,97885788","9,612009818"
"6,928563833","-5,412444763","-0,3751199341","7,94727356","9,622599977"
"6,938515833","-5,444478149","-0,4279600525","7,934849396","9,632617872"
"6,948468833","-5,501359863","-0,4695735168","7,91209671","9,648146661"
"6,958420833","-5,557044067","-0,4824467468","7,888894958","9,661685013"
"6,968373833","-5,661227417","-0,397124176","7,89922348","9,726506828"
"6,978325833","-5,772595825","-0,3951782227","7,903564453","9,795170211"
"6,988278833","-5,847889252","-0,3881428528","7,904163208","9,83993189"
"6,998231833","-5,889652405","-0,3739224243","7,896229706","9,857903783"
"7,008183833","-5,917195129","-0,4299060059","7,879763947","9,863503294"
"7,018136833","-5,920039215","-0,4616400146","7,877668304","9,864970032"
"7,028088833","-5,90776474","-0,4408332825","7,887098694","9,864195051"
"7,038041833","-5,897885284","-0,4071533203","7,900720367","9,867735656"
"7,047993833","-5,892646179","-0,3342549133","7,94368103","9,896316166"
"7,057946833","-5,905070343","-0,2659968567","7,939938812","9,898648313"
"7,067898833","-5,871839447","-0,2330653381","7,948321381","9,88476761"
"7,077851833","-5,883664856","-0,1960922241","7,958799591","9,899416914"
"7,087804833","-5,924829254","-0,2115101624","7,984246674","9,944673609"
"7,097756833","-5,985453186","-0,2014810181","7,98933609","9,98477519"
"7,107709833","-6,047424316","-0,1589694214","7,996072083","10,02665352"
"7,117661833","-6,060896301","-0,183817749","8,018675079","10,05322848"
"7,127614833","-6,095624084","-0,1980381775","8,070467377","10,11574494"
"7,137566833","-6,156098328","-0,2183958435","8,054600372","10,14010999"
"7,147519833","-6,175258484","-0,2168989563","8,027057648","10,12988238"
"7,157471833","-6,16403183","-0,2618055725","8,035589905","10,13087043"
"7,167424833","-6,130202179","-0,3270698547","8,013286285","10,09450893"
"7,177376833","-6,058800659","-0,2719844055","8,003706207","10,04202938"
"7,187329833","-5,959706726","-0,2478845215","7,977959747","9,961294731"
"7,197282833","-5,83995575","-0,2659968567","7,946674805","9,865367603"
"7,207234833","-5,734425201","-0,2188449097","7,929610291","9,788270779"
"7,217187833","-5,703439636","-0,1248403931","7,917784882","9,758899848"
"7,227139833","-5,657485199","-0,04430786133","7,904013519","9,720212532"
"7,237092833","-5,597160645","-0,02020797729","7,903714142","9,684901284"
"7,247044833","-5,530549164","-0,05478607178","7,889194336","9,634799574"
"7,256997833","-5,479205933","-0,1127156067","7,864645386","9,585773287"
"7,266949833","-5,515280914","-0,1666035461","7,875273285","9,615924793"
"7,276902833","-5,590125275","-0,1951940918","7,889493713","9,671179472"
"7,286854833","-5,658832397","-0,250279541","7,898924103","9,719980758"
"7,296807833","-5,709726563","-0,310304718","7,918533325","9,767314701"
"7,306760833","-5,723797302","-0,4090992737","7,926317139","9,785485228"
"7,316712833","-5,708529053","-0,4297563171","7,911797333","9,765681311"
"7,326665833","-5,696404266","-0,4420307922","7,929610291","9,773593615"
"7,336617833","-5,696404266","-0,4152365112","7,960446167","9,797456104"
"7,346570833","-5,694308624","-0,3637435913","7,977510681","9,808064884"
"7,356522833","-5,676196289","-0,3748205566","7,97885788","9,799074845"
"7,366475833","-5,699547729","-0,4037104797","8,00101181","9,831786026"
"7,376427833","-5,674250336","-0,4222718811","8,018974457","9,832567404"
"7,386380833","-5,661227417","-0,420176239","8,021968231","9,827411574"
"7,396332833","-5,642666016","-0,4113446045","8,051606598","9,840592104"
"7,406285833","-5,623954926","-0,399818573","8,06657547","9,841664682"
"7,416238833","-5,566923523","-0,3498225403","8,039332123","9,784879882"
"7,426190833","-5,557493134","-0,3682342529","8,039032745","9,77994754"
"7,436143833","-5,523663483","-0,3041674805","8,050259399","9,767806945"
"7,446095833","-5,488636322","-0,2330653381","8,017627258","9,719145795"
"7,456048833","-5,479954376","-0,2098635864","8,003556519","9,702105938"
"7,466000833","-5,491630096","-0,1697470093","7,993677063","9,699777737"
"7,475953833","-5,444029083","-0,1658551025","7,976013794","9,658248113"
"7,485905833","-5,403762817","-0,2216889954","7,968978424","9,630909392"
"7,495858833","-5,372627563","-0,2507286072","7,964487762","9,610466018"
"7,505810833","-5,364694061","-0,2716850281","7,950417023","9,594940644"
"7,515763833","-5,366190948","-0,2676434326","7,961044922","9,604471591"
"7,525716833","-5,41394165","-0,2951861572","7,970774689","9,6400803"
"7,535668833","-5,467230835","-0,329614563","7,977360992","9,676649584"
"7,545621833","-5,526208191","-0,3016227722","7,95775177","9,693078278"
"7,555573458","-5,579796753","-0,303868103","7,967182159","9,731518853"
"7,565526458","-5,64101944","-0,3091072083","7,972570953","9,771311846"
"7,575478458","-5,699547729","-0,2616558838","7,986042938","9,814794442"
"7,585431458","-5,745502167","-0,2451901245","8,001311188","9,853521912"
"7,595383458","-5,762117615","-0,2487826538","7,992479553","9,856146388"
"7,605336458","-5,792205048","-0,2737806702","7,977360992","9,862194663"
"7,615288458","-5,820196838","-0,3053649902","7,975714417","9,878256904"
"7,625241458","-5,85746933","-0,396076355","7,969277802","9,898293394"
"7,635193458","-5,845344543","-0,3965254211","7,955656128","9,880169516"
"7,645146458","-5,829477539","-0,3540138245","7,95191391","9,866157763"
"7,655099458","-5,771098938","-0,3043171692","7,966134338","9,841620201"
"7,665051458","-5,742658081","-0,2874023438","7,974217529","9,831015571"
"7,675004458","-5,758076019","-0,290994873","7,984396362","9,848385793"
"7,684956458","-5,797444153","-0,2665956116","7,969128113","9,858419488"
"7,694909458","-5,839057617","-0,2869532776","7,973169708","9,886777596"
"7,704861458","-5,802084503","-0,2971321106","7,986641693","9,876179302"
"7,714814458","-5,740861816","-0,2579136658","7,97526535","9,829998538"
"7,724766458","-5,673352203","-0,2165995789","7,947572937","9,767177494"
"7,734719458","-5,623356171","-0,1889071655","7,949818268","9,739477965"
"7,744671458","-5,602699127","-0,1896556091","7,921227722","9,704228737"
"7,754624458","-5,6070401","-0,1704954529","7,923323364","9,708090467"
"7,764577458","-5,634133759","-0,1685494995","7,930508423","9,729585602"
"7,774529458","-5,686524811","-0,1760339355","7,955955505","9,780837407"
"7,784482458","-5,743256836","-0,1710942078","7,945926361","9,805713541"
"7,794434458","-5,781577148","-0,1754351807","7,942184143","9,825258306"
"7,804387458","-5,806425476","-0,186512146","7,946974182","9,843970857"
"7,814339458","-5,823340302","-0,1678010559","7,967032471","9,869805259"
"7,824292458","-5,787415009","-0,1595681763","7,94368103","9,829633909"
"7,834244458","-5,769602051","-0,1395098877","7,951165466","9,824907282"
"7,844197458","-5,761967926","-0,1287322998","7,965834961","9,83216014"
"7,854149458","-5,735173645","-0,1610650635","7,966733093","9,817687858"
"7,864102458","-5,729784851","-0,1793270874","7,946225739","9,798219029"
"7,874055458","-5,72753952","-0,1996847534","7,924221497","9,779461605"
"7,884007458","-5,759572906","-0,2182461548","7,933651886","9,806280829"
"7,893960458","-5,773793335","-0,2151026917","7,947572937","9,825826898"
"7,903912458","-5,793701935","-0,2353106689","7,943082275","9,834373862"
"7,913865458","-5,799839172","-0,2622546387","7,931256866","9,8291275"
"7,923817458","-5,80941925","-0,2647993469","7,925568695","9,830264995"
"7,933770458","-5,821394348","-0,2680924988","7,954608307","9,860846772"
"7,943722458","-5,852080536","-0,2767744446","7,978558502","9,89852749"
"7,953675458","-5,830076294","-0,2883004761","7,962691498","9,873062476"
"7,963627458","-5,766907654","-0,314046936","7,954907684","9,830381764"
"7,973580458","-5,696254578","-0,3571572876","7,93904068","9,777691162"
"7,983533458","-5,642366638","-0,3492237854","7,95894928","9,762332312"
"7,993485458","-5,593568115","-0,2713856506","7,960296478","9,732829725"
"8,003438458","-5,619164886","-0,2534230042","7,975115662","9,759185778"
"8,013390458","-5,695057068","-0,2703378296","7,994874573","9,819611855"
"8,023343458","-5,716761932","-0,2421963501","7,997269592","9,833430073"
"8,033295458","-5,711822205","-0,2628533936","7,992629242","9,827315351"
"8,043248458","-5,713169403","-0,2767744446","7,994724884","9,830184876"
"8,053200458","-5,712720337","-0,2894979858","7,994275818","9,829925157"
"8,063153458","-5,67844162","-0,23635849","7,971972198","9,790449699"
"8,073105458","-5,650449829","-0,187559967","7,979157257","9,779044562"
"8,083058458","-5,634732513","-0,1751358032","7,985294495","9,774753767"
"8,093010458","-5,609734497","-0,1580712891","7,986492004","9,761053334"
"8,102963458","-5,608087921","-0,17902771","7,975714417","9,751652245"
"8,112916458","-5,607189789","-0,2315684509","7,967780914","9,745754664"
"8,122868458","-5,614524536","-0,2212399292","7,970475311","9,751938759"
"8,132821458","-5,601800995","-0,1938468933","7,985144806","9,75603857"
"8,142773458","-5,597460022","-0,2028282166","7,99397644","9,760960881"
"8,152726458","-5,603148193","-0,2055226135","7,986042938","9,757786175"
"8,162678458","-5,601052551","-0,1749861145","7,966882782","9,740309599"
"8,172631458","-5,57306076","-0,1913021851","7,959997101","9,718907172"
"8,182583458","-5,576204224","-0,2005828857","7,989186401","9,744813307"
"8,192536458","-5,560786285","-0,170944519","7,986492004","9,733222523"
"8,202488458","-5,524561615","-0,1832189941","7,974367218","9,702828596"
"8,212441458","-5,498515778","-0,1992356873","7,976911926","9,690433143"
"8,222394458","-5,460494843","-0,1916015625","7,991282043","9,680614845"
"8,232346458","-5,448220367","-0,2128573608","7,987839203","9,67129715"
"8,242299458","-5,497168579","-0,2312690735","8,015232239","9,721949167"
"8,252251458","-5,565875702","-0,2209405518","8,034542084","9,776587009"
"8,262204458","-5,642216949","-0,2426454163","8,055648193","9,838036223"
"8,272156458","-5,698649597","-0,2477348328","8,059091034","9,873445603"
"8,282109458","-5,721402283","-0,2552192688","8,056845703","9,884955419"
"8,292061458","-5,748795319","-0,3058140564","8,0303508","9,880723851"
"8,302014458","-5,769302673","-0,2622546387","8,024962006","9,887044352"
"8,311966458","-5,728437653","-0,1839674377","8,00220932","9,842976987"
"8,321919458","-5,684429169","-0,1853146362","7,981851654","9,800868957"
"8,331871458","-5,660329285","-0,2225871277","7,964936829","9,773898471"
"8,341824458","-5,67963913","-0,2933898926","7,931556244","9,759813662"
"8,351777458","-5,738616486","-0,3423381042","7,94023819","9,802871878"
"8,361729458","-5,794450378","-0,3016227722","7,906857605","9,807396631"
"8,371682458","-5,802533569","-0,282462616","7,927814026","9,8285002"
"8,381634458","-5,768703918","-0,2323168945","7,888146515","9,775212094"
"8,391587458","-5,721252594","-0,2174977112","7,864944763","9,728175195"
"8,401539458","-5,704637146","-0,2612068176","7,846832428","9,704838645"
"8,411492458","-5,716612244","-0,2679428101","7,857011261","9,720291912"
"8,421444458","-5,776038666","-0,2655477905","7,861202545","9,758670184"
"8,431397458","-5,802832947","-0,2516267395","7,86644165","9,778399177"
"8,441349458","-5,820945282","-0,2278262329","7,85716095","9,781118901"
"8,451302458","-5,851182404","-0,2498304749","7,855514374","9,798359907"
"8,461254458","-5,867348785","-0,252973938","7,860154724","9,811819906"
"8,471207458","-5,841153259","-0,2490820313","7,855813751","9,792595312"
"8,481160458","-5,808072052","-0,2574645996","7,852071533","9,770108308"
"8,491112458","-5,801934814","-0,2589614868","7,877668304","9,787091834"
"8,501065458","-5,798042908","-0,2203417969","7,88515274","9,789866486"
"8,511017458","-5,819598083","-0,1758842468","7,91913208","9,82910525"
"8,520970458","-5,838608551","-0,2020797729","7,940387878","9,857988928"
"8,530922458","-5,843099213","-0,1692979431","7,946824493","9,865216152"
"8,540875458","-5,848937073","-0,1008901978","7,979606323","9,894157912"
"8,550827458","-5,867348785","-0,122744751","8,023914185","9,941028462"
"8,560780833","-5,867498474","-0,1419049072","8,032147064","9,948017984"
"8,570732833","-5,846691742","-0,1535806274","8,018824768","9,925167102"
"8,580685833","-5,845643921","-0,1707948303","8,021968231","9,927371154"
"8,590637833","-5,83995575","-0,1794767761","8,033344574","9,933374055"
"8,600590833","-5,798042908","-0,1531315613","8,04786438","9,920124592"
"8,610543833","-5,760471039","-0,113613739","8,0303508","9,883444169"
"8,620495833","-5,75448349","-0,09580078125","8,038284302","9,88621629"
"8,630448833","-5,716013489","-0,1121168518","7,992629242","9,826876543"
"8,640400833","-5,657934265","-0,1649569702","7,97526535","9,779789791"
"8,650353833","-5,627098389","-0,2035766602","7,962691498","9,752442546"
"8,660305833","-5,61407547","-0,1643582153","7,96478714","9,745906381"
"8,670258833","-5,604794769","-0,1067280579","7,956105194","9,732662798"
"8,680210833","-5,618416443","-0,07888595581","7,968679047","9,750521631"
"8,690163833","-5,630391541","-0,09819580078","7,978109436","9,765304987"
"8,700115833","-5,644162903","-0,1369651794","7,962990875","9,761380948"
"8,710068833","-5,648503876","-0,200433197","7,942184143","9,74802844"
"8,720021833","-5,652844849","-0,2173480225","7,959847412","9,765299067"
"8,729973833","-5,655988312","-0,17902771","7,968080292","9,773052657"
"8,739926833","-5,65733551","-0,1691482544","7,963140564","9,769629668"
"8,749878833","-5,667214966","-0,2173480225","7,938741302","9,756442953"
"8,759831833","-5,705535278","-0,2865042114","7,929759979","9,773244641"
"8,769783833","-5,724845123","-0,3032693481","7,903115387","9,763455167"
"8,779736833","-5,737418976","-0,3147953796","7,899672546","9,768413329"
"8,789688833","-5,771098938","-0,3411405945","7,937244415","9,819460717"
"8,799641833","-5,777535553","-0,3429368591","7,918233948","9,807953487"
"8,809593833","-5,722150726","-0,353714447","7,901768188","9,762482438"
"8,819546833","-5,719606018","-0,3743714905","7,864495697","9,731615466"
"8,829498833","-5,735473022","-0,3451821899","7,897127838","9,766239278"
"8,839451833","-5,739065552","-0,2731819153","7,920928345","9,785326137"
"8,849404833","-5,730832672","-0,233664093","7,958799591","9,810174971"
"8,859356833","-5,752238159","-0,2639012146","7,943531342","9,811094631"
"8,869309833","-5,73921524","-0,2436932373","7,940088501","9,800152212"
"8,879261833","-5,701942749","-0,2508782959","7,953859863","9,789738391"
"8,889214833","-5,695655823","-0,2848576355","7,984246674","9,811719221"
"8,899166833","-5,664221191","-0,250279541","7,994275818","9,800739125"
"8,909119833","-5,646258545","-0,2014810181","7,986641693","9,783009542"
"8,919071833","-5,6269487","-0,1797761536","7,974816284","9,761791122"
"8,929024833","-5,594615936","-0,1474433899","7,987090759","9,752696336"
"8,938976833","-5,563181305","-0,1212478638","7,975564728","9,72488149"
"8,948929833","-5,55210434","-0,1249900818","7,981701965","9,723633651"
"8,958881833","-5,554199982","-0,144150238","7,98349823","9,726569833"
"8,968834833","-5,617069244","-0,192948761","7,986342316","9,765774916"
"8,978787833","-5,691913605","-0,1930984497","7,990234222","9,812186832"
"8,988739833","-5,736071777","-0,2010319519","8,013735352","9,857123696"
"8,998692833","-5,757776642","-0,2444416809","7,988587646","9,850343962"
"9,008644833","-5,745053101","-0,2327659607","7,989934845","9,843722566"
"9,018597833","-5,722599792","-0,2050735474","7,979606323","9,821625152"
"9,028549833","-5,700445862","-0,2278262329","7,996072083","9,822634909"
"9,038502833","-5,70763092","-0,219743042","8,001311188","9,830885944"
"9,048454833","-5,708978119","-0,2257305908","8,002957764","9,833143873"
"9,058407833","-5,736371155","-0,2230361938","7,998766479","9,845606348"
"9,068359833","-5,748196564","-0,2228865051","7,988288269","9,843992666"
"9,078312833","-5,744304657","-0,2212399292","7,963290253","9,821403909"
"9,088264833","-5,699398041","-0,2077679443","7,945477295","9,780435317"
"9,098217833","-5,654491425","-0,177381134","7,940537567","9,749711493"
"9,108170833","-5,619613953","-0,1475930786","7,91329422","9,70680535"
"9,118122833","-5,593867493","-0,1426533508","7,903863831","9,684150296"
"9,128075833","-5,576503601","-0,2010319519","7,901319122","9,673088965"
"9,138027833","-5,581742706","-0,2338137817","7,90745636","9,681858634"
"9,147980833","-5,599705353","-0,2453398132","7,885302429","9,674445"
"9,157932833","-5,594466248","-0,2302212524","7,901917877","9,68459398"
"9,167885833","-5,605543213","-0,2001338196","7,940088501","9,721480014"
"9,177837833","-5,569318542","-0,1760339355","7,949967957","9,708258726"
"9,187790833","-5,494474182","-0,1824705505","7,939340057","9,656897151"
"9,197742833","-5,464536438","-0,2472857666","7,94607605","9,646887235"
"9,207695833","-5,453609161","-0,2856060791","7,95311142","9,647559534"
"9,217647833","-5,479355621","-0,2930905151","7,968080292","9,674685711"
"9,227600833","-5,558840332","-0,2656974792","8,021070099","9,762626005"
"9,237552833","-5,624403992","-0,2406994629","8,014184418","9,793825012"
"9,247505833","-5,666616211","-0,2353106689","8,00804718","9,812987824"
"9,257458833","-5,703439636","-0,2246827698","8,018076324","9,84221794"
"9,267410833","-5,736221466","-0,2659968567","8,009095001","9,854978121"
"9,277363833","-5,770051117","-0,2962339783","8,011190643","9,87726784"
"9,287315833","-5,822891235","-0,2674937439","8,008645935","9,905353348"
"9,297268833","-5,877527618","-0,2734812927","8,03379364","9,958010001"
"9,307220833","-5,908662872","-0,2576142883","8,055947571","9,993845772"
"9,317173833","-5,91480011","-0,2254312134","8,068222046","10,00659215"
"9,327125833","-5,898184662","-0,1715432739","8,038733368","9,971922761"
"9,337078833","-5,855223999","-0,1480421448","8,026458893","9,936277317"
"9,347030833","-5,813460846","-0,1258882141","8,017028503","9,90378316"
"9,356983833","-5,764063568","-0,1104702759","7,990383911","9,853063866"
"9,366935833","-5,705984344","-0,1426533508","7,954757996","9,790647685"
"9,376888833","-5,674998779","-0,1799258423","7,921676788","9,746329955"
"9,386841833","-5,654192047","-0,1881587219","7,923922119","9,736212465"
"9,396793833","-5,668711853","-0,1568737793","7,921078033","9,741785292"
"9,406746833","-5,701044617","-0,1428030396","7,930957489","9,768438418"
"9,416698833","-5,762267303","-0,1112187195","7,924071808","9,798316595"
"9,426651833","-5,765261078","-0,08472381592","7,923622742","9,799449514"
"9,436603833","-5,721102905","-0,1113684082","7,896080017","9,751487118"
"9,446556833","-5,689518585","-0,1627116394","7,900271301","9,737113712"
"9,456508833","-5,667065277","-0,1637594604","7,890242157","9,71588222"
"9,466461833","-5,689219208","-0,1715432739","7,908504181","9,743771378"
"9,476413833","-5,736221466","-0,1594184875","7,931107178","9,789387725"
"9,486366833","-5,769602051","-0,1764830017","7,95775177","9,830832483"
"9,496318833","-5,817203064","-0,1850152588","7,964637451","9,864559385"
"9,506271833","-5,840554504","-0,187559967","7,979905701","9,890710321"
"9,516223833","-5,826783142","-0,2152523804","7,978109436","9,881698515"
"9,526176833","-5,779780884","-0,2284249878","7,993826752","9,867082202"
"9,536129833","-5,755082245","-0,2356100464","7,967631226","9,831563003"
"9,546081833","-5,748046875","-0,2064207458","7,980504456","9,837230493"
"9,556034708","-5,74280777","-0,1445993042","7,991581421","9,842058913"
"9,565986708","-5,770799561","-0,1296304321","8,014184418","9,876542082"
"9,575939708","-5,771398315","-0,1520837402","8,009693756","9,873568861"
"9,585891708","-5,73113205","-0,1833686829","8,002658386","9,844899181"
"9,595844708","-5,673950958","-0,2198927307","7,96822998","9,784414204"
"9,605796708","-5,670059052","-0,2526745605","7,983797607","9,795633635"
"9,615749708","-5,668262787","-0,2564167786","7,998167725","9,806408085"
"9,625701708","-5,67260376","-0,2603086853","7,995024261","9,806457412"
"9,635654708","-5,716312866","-0,2859054565","7,985444183","9,824728674"
"9,645606708","-5,727090454","-0,2920426941","7,995772705","9,839574948"
"9,655559708","-5,726791077","-0,2311193848","8,005652161","9,845812243"
"9,665511708","-5,72170166","-0,1683998108","8,016579437","9,850470763"
"9,675464708","-5,694907379","-0,146844635","8,022716675","9,839589232"
"9,685417708","-5,650898895","-0,1936972046","7,993078308","9,79078535"
"9,695369708","-5,618416443","-0,2155517578","7,949967957","9,737302316"
"9,705322708","-5,588029633","-0,196690979","7,935747528","9,707772728"
"9,715274708","-5,55674469","-0,1815724182","7,941884766","9,694530093"
"9,725227708","-5,533692627","-0,1371148682","7,945926361","9,683919677"
"9,735179708","-5,504802704","-0,122744751","7,943531342","9,66527854"
"9,745132708","-5,490731964","-0,1266366577","7,918383636","9,636647434"
"9,755084708","-5,473368073","-0,1389111328","7,899822235","9,611672368"
"9,765037708","-5,459147644","-0,09714797974","7,904462585","9,606886046"
"9,774989708","-5,453010406","-0,04580474854","7,904761963","9,603264146"
"9,784942708","-5,49357605","0,03547622681","7,910749512","9,631230151"
"9,794894708","-5,511688385","0,08547225952","7,939639435","9,665603381"
"9,804847708","-5,558690643","0,01496887207","7,952063599","9,702297728"
"9,814800708","-5,619314575","-0,07439529419","7,977211304","9,75797782"
"9,824752708","-5,688770142","-0,1516346741","7,993826752","9,812561589"
"9,834705708","-5,743556213","-0,2091151428","7,992928619","9,844748602"
"9,844657708","-5,776487732","-0,1787283325","8,040080566","9,901648845"
"9,854610708","-5,765710144","-0,189206543","8,073910217","9,923065997"
"9,864562708","-5,727240143","-0,2139051819","8,05609726","9,886745579"
"9,874515708","-5,734425201","-0,2291734314","8,03843399","9,876870652"
"9,884467708","-5,758225708","-0,2528242493","8,043074341","9,895055748"
"9,894420708","-5,784121857","-0,2883004761","8,035440216","9,904922124"
"9,904372708","-5,812113647","-0,2751278687","8,043673096","9,927589701"
"9,914325708","-5,812712402","-0,229921875","8,033194885","9,91830175"
"9,924277708","-5,785469055","-0,2800675964","8,01747757","9,890906765"
"9,934230708","-5,756130066","-0,3359014893","8,019273834","9,876974029"
"9,944182708","-5,693111115","-0,3451821899","8,003257141","9,827654337"
"9,954135708","-5,644911346","-0,3637435913","7,980654144","9,782033228"
"9,964088708","-5,664520569","-0,3341052246","7,992180176","9,801702074"
"9,974040708","-5,702391815","-0,2968327332","7,999065857","9,828043379"
"9,983993708","-5,745651855","-0,2727328491","8,007149048","9,859073705"
"9,993945708","-5,753884735","-0,2866539001","8,014932861","9,870588066"
"10,00389871","-5,732179871","-0,3186872864","7,982450409","9,832546068"
"10,01385071","-5,669909363","-0,3017724609","7,930658112","9,753680171"
"10,02380371","-5,631888428","-0,2372566223","7,919730835","9,720935884"
"10,03375571","-5,607189789","-0,1655557251","7,932753754","9,71578963"
"10,04370871","-5,5871315","-0,1618135071","7,948920135","9,717384079"
"10,05366071","-5,589376831","-0,1689985657","7,922125854","9,696894963"
"10,06361371","-5,59296936","-0,199385376","7,898175659","9,679991712"
"10,07356571","-5,569318542","-0,2115101624","7,911497955","9,677491693"
"10,08351871","-5,552254028","-0,1803749084","7,939190369","9,689726705"
"10,09347071","-5,530848541","-0,1357676697","7,961044922","9,694686931"
"10,10342371","-5,543572083","-0,1221459961","7,964637451","9,704718482"
"10,11337671","-5,597609711","-0,1155596924","7,968379669","9,738668444"
"10,12332871","-5,680686951","-0,1420545959","7,966134338","9,785176546"
"10,13328171","-5,757776642","-0,1823208618","8,004155273","9,861629399"
"10,14323371","-5,802683258","-0,1469943237","8,035889282","9,913034696"
"10,15318671","-5,819598083","-0,09086105347","8,038134613","9,924091175"
"10,16313871","-5,785469055","-0,04924758911","8,039032745","9,904550721"
"10,17309171","-5,720354462","-0,05538482666","8,048313446","9,874252983"
"10,18304371","-5,648653564","-0,1267863464","8,030201111","9,818731677"
"10,19299671","-5,597460022","-0,1588197327","7,991282043","9,757938876"
"10,20294871","-5,553152161","-0,1643582153","7,977959747","9,721746462"
"10,21290171","-5,493276672","-0,1769320679","7,990832977","9,698494998"
"10,22285371","-5,385800171","-0,1480421448","7,998018036","9,643497937"
"10,23280671","-5,227878571","-0,07918533325","7,989036713","9,54786323"
"10,24275871","-5,022655334","-0,06601272583","7,981552277","9,430620395"
"10,25271171","-4,791236572","-0,1546284485","7,992629242","9,31997747"
"10,26266471","-4,584217072","-0,2351609802","8,015381927","9,236703648"
"10,27261671","-4,350103912","-0,2014810181","8,052355042","9,154475428"
"10,28256971","-4,041146393","-0,1088237","8,092770996","9,04630583"
"10,29252171","-3,63548996","0,002395019531","8,101003876","8,879361282"
"10,30247471","-3,135679321","0,1218466187","8,135881348","8,72008582"
"10,31242671","-2,573298798","0,2222877502","8,129893799","8,530325417"
"10,32237971","-2,007026367","0,1363664246","8,124205627","8,369556005"
"10,33233171","-1,250499573","-0,4415817261","8,224347382","8,330584221"
"10,34228471","-0,5923182678","-0,6914122009","8,005053406","8,056660089"
"10,35223671","-0,5525010681","-0,09445358276","8,110134888","8,129481337"
"10,36218971","-0,5330415344","0,4236190796","8,292306061","8,320211909"
"10,37214171","-0,5944139099","0,008681945801","8,640332336","8,660758983"
"10,38209471","-0,5367837524","-0,4049079895","8,711584167","8,737493118"
"10,39204671","-0,5454656982","-0,3977229309","8,625812531","8,652188057"
"10,40199971","-0,5998027039","-0,4384382629","8,7323909","8,76393988"
"10,41195171","-0,6737489319","-0,3552113342","9,119934998","9,151684385"
"10,42190471","-0,6959028625","-0,2938389587","9,443262634","9,473427643"
"10,43185771","-0,7158114624","-0,3233276367","9,635762329","9,66772168"
"10,44180971","-0,7860154724","-0,3823049927","9,699529724","9,738832286"
"10,45176271","-0,7352709961","-0,572409668","9,601333923","9,64644439"
"10,46171471","-0,795894928","-0,7640112305","9,873468018","9,934914826"
"10,47166771","-0,8976832581","-0,6834786987","10,13871643","10,20130135"
"10,48161971","-0,8964857483","-0,3721261597","10,32612671","10,3716468"
"10,49157271","-0,8857081604","-0,2817141724","10,23796005","10,28006167"
"10,50152471","-0,8542735291","-0,6839277649","10,30247589","10,36043194"
"10,51147771","-0,9966275024","-1,077758789","10,34319122","10,44683852"
"10,52142971","-0,9749226379","-0,9404942322","10,58254349","10,66889077"
"10,53138271","-0,8708889771","-0,5824388123","10,38166122","10,43439372"
"10,54133471","-0,9514215088","-0,6110293579","10,69600754","10,75560956"
"10,55128771","-0,9672885132","-0,8726852417","10,68493057","10,76405908"
"10,56124025","-0,9056167603","-0,9542655945","10,83177521","10,91137566"
"10,57119325","-0,979712677","-1,114282837","10,77309723","10,87479136"
"10,58114625","-0,9913883972","-0,9650431824","11,04583008","11,13213912"
"10,59109825","-0,8406518555","-0,6415658569","10,73013657","10,78212099"
"10,60105125","-0,9196875","-1,052012329","11,67946243","11,76275468"
"10,61100325","-0,959355011","-1,354682922","10,74375824","10,87124045"
"10,62095625","-0,6123765564","-0,6277944946","11,56480087","11,5980063"
"10,63090825","-0,9996212769","-1,061442719","11,18099899","11,27566591"
"10,64086125","-0,8887019348","-1,116528168","11,45807281","11,54659512"
"10,65081325","-0,6625222778","-0,7533833313","11,34850067","11,39276041"
"10,66076625","-0,7839198303","-0,9385482788","11,40478363","11,47015662"
"10,67071825","-0,7873626709","-0,735869751","11,45612686","11,50670617"
"10,68067125","-0,5535488892","-0,7271878052","11,27126129","11,30825139"
"10,69062325","-0,7758366394","-0,9276210022","11,58890076","11,65182492"
"10,70057625","-0,4974156189","-0,5815406799","11,19117783","11,21731131"
"10,71052825","-0,7964936829","-0,6447093201","11,53231842","11,57775541"
"10,72048125","-0,5783972168","-0,5155279541","11,48172363","11,50783603"
"10,73043325","-0,6481521606","-0,5481600952","11,66449356","11,69534056"
"10,74038625","-0,7454498291","-0,637224884","11,60581558","11,6471759"
"10,75033925","-0,703686676","-0,3662882996","11,86462738","11,89111958"
"10,76029125","-0,7364685059","-0,4553530884","11,86103485","11,8925977"
"10,77024425","-0,7680528259","-0,5245092773","12,09933929","12,13503302"
"10,78019625","-0,7954458618","-0,4334985352","12,17418365","12,20784186"
"10,79014925","-0,8352630615","-0,3282673645","12,12733109","12,16049272"
"10,80010125","-0,8502319336","-0,2157014465","12,19364319","12,22515258"
"10,81005425","-0,8946894836","-0,3550616455","12,30201782","12,33961833"
"10,82000625","-1,032552795","-0,3336561584","12,21400085","12,26210865"
"10,82995925","-0,9720785522","-0,2339634705","12,08452011","12,12581139"
"10,83991125","-1,033001862","-0,1311273193","11,85399948","11,89964667"
"10,84986425","-1,067879333","-0,1742376709","11,95893127","12,00777924"
"10,85981625","-1,119372253","-0,2520758057","11,66778671","11,72406854"
"10,86976925","-1,047072601","-0,01826202393","11,51465515","11,56217876"
"10,87972125","-1,103954315","0,03412902832","11,33787277","11,39154243"
"10,88967425","-1,09287735","-0,09714797974","11,20315292","11,25675149"
"10,89962625","-1,070124664","-0,005388793945","11,01319794","11,06506776"
"10,90957925","-1,113384705","-0,02439926147","10,94613739","11,00264262"
"10,91953225","-1,104852448","-0,07514373779","10,71202423","10,76911364"
"10,92948425","-1,025667114","-0,007933502197","10,75258987","10,80140014"
"10,93943725","-1,108444977","-0,01077758789","10,67609894","10,73349221"
"10,94938925","-1,041085052","-0,07544311523","10,561138","10,61259561"
"10,95934225","-1,053658905","-0,0845741272","10,45860123","10,51188325"
"10,96929425","-1,019230499","-0,1014889526","10,46548691","10,51549081"
"10,97924725","-0,9873468018","-0,2056723022","10,31924103","10,36840828"
"10,98919925","-0,9830058289","-0,2094145203","10,19679565","10,24620889"
"10,99915225","-0,9153465271","-0,06346801758","10,05324417","10,09502877"
"11,00910425","-0,8958869934","-0,2670446777","9,884994049","9,929100348"
"11,01905725","-0,8836125183","-0,3508703613","9,813891907","9,859835468"
"11,02900925","-0,807121582","-0,2806663513","9,608369293","9,646293554"
"11,03896225","-0,76640625","-0,316741333","9,391470337","9,428012447"
"11,04891425","-0,7849676514","-0,3468287659","9,255253601","9,29495474"
"11,05886725","-0,7414082336","-0,3712280273","9,257349243","9,294407535"
"11,06881925","-0,7152127075","-0,4183799744","9,023984528","9,061946136"
"11,07877225","-0,6939569092","-0,373024292","9,005423126","9,039821292"
"11,08872525","-0,7182064819","-0,4117936707","8,968150635","9,006282273"
"11,09867725","-0,6894662476","-0,4577481079","8,936865692","8,975102531"
"11,10863025","-0,674197998","-0,3263214111","8,948541412","8,979834186"
"11,11858225","-0,6848258972","-0,3851490784","8,96755188","9,001906078"
"11,12853525","-0,7054829407","-0,4992118835","8,95587616","8,997479451"
"11,13848725","-0,7098239136","-0,4752616882","9,008566589","9,048977603"
"11,14844025","-0,7300318909","-0,5117857361","8,998687134","9,042745232"
"11,15839225","-0,735869751","-0,5284011841","9,029672699","9,075004196"
"11,16834525","-0,7608677673","-0,5760021973","9,089548187","9,1395068"
"11,17829725","-0,8202941895","-0,6872209167","9,114246826","9,176854055"
"11,18825025","-0,8110134888","-0,7089257813","9,093290405","9,156868954"
"11,19820225","-0,8469387817","-0,6878196716","9,13370636","9,198640827"
"11,20815525","-0,8506809998","-0,7258406067","9,123377838","9,191655233"
"11,21810725","-0,859662323","-0,7909552002","9,127269745","9,20172171"
"11,22806025","-0,9295669556","-0,8538244629","9,141340485","9,228066796"
"11,23801325","-0,9421408081","-0,8824150085","9,116043091","9,206982523"
"11,24796525","-0,9199868774","-0,8812174988","9,104966125","9,193656959"
"11,25791825","-0,9367520142","-0,8699908447","9,131910095","9,220963637"
"11,26787025","-0,9574090576","-0,9306147766","9,212742004","9,308989806"
"11,27782325","-0,9632469177","-1,005908203","9,219477997","9,324080141"
"11,28777525","-0,956660614","-0,9735754395","9,27291687","9,372835001"
"11,29772825","-0,9605525208","-0,9577084351","9,356592865","9,454400913"
"11,30768025","-0,9470805359","-0,9638456726","9,512119446","9,607620745"
"11,31763325","-0,9701325989","-0,9583071899","9,648635559","9,744520413"
"11,32758525","-0,9461824036","-0,8872050476","9,804311829","9,889738337"
"11,33753825","-0,9386979675","-0,8681945801","9,951006775","10,03281872"
"11,34749025","-0,9422904968","-0,8716374207","10,12793884","10,20895726"
"11,35744325","-0,9177415466","-0,8937913513","10,29124924","10,37067613"
"11,36739525","-0,9024732971","-0,8996292114","10,43480072","10,51231929"
"11,37734825","-0,9199868774","-0,873583374","10,53658905","10,61269205"
"11,38730025","-0,8571176147","-0,7616162109","10,75438614","10,81533777"
"11,39725325","-0,8111631775","-0,7767347717","10,75109299","10,8095931"
"11,40720525","-0,8205935669","-0,9024732971","10,79749649","10,86617515"
"11,41715825","-0,784069519","-0,8273295593","10,84988754","10,90959664"
"11,42711125","-0,7246430969","-0,7297325134","10,86560486","10,91416447"
"11,43706325","-0,7146139526","-0,7364685059","10,84854034","10,89696685"
"11,44701625","-0,7408094788","-0,6779402161","10,89150101","10,93769609"
"11,45696825","-0,6637197876","-0,6165678406","10,88955505","10,92717206"
"11,46692125","-0,7261399841","-0,6620732117","10,81336349","10,85792108"
"11,47687325","-0,6604266357","-0,5885760498","10,87084396","10,90677925"
"11,48682625","-0,7102729797","-0,5592370605","10,86440735","10,90195307"
"11,49677825","-0,6798861694","-0,5324427795","10,92368408","10,95776503"
"11,50673125","-0,7137158203","-0,3836521912","11,00990479","11,03968218"
"11,51668325","-0,7222480774","-0,3456312561","11,06499023","11,09392231"
"11,52663625","-0,7888595581","-0,3171903992","11,19656662","11,22880284"
"11,53658825","-0,7619155884","-0,1851649475","11,37289993","11,39989712"
"11,54654125","-0,8451425171","-0,1474433899","11,48860931","11,52059675"
"11,55649275","-0,8223898315","-0,02125579834","11,70146667","11,73034949"
"11,56644575","-0,8987310791","-0,003592529297","11,7050592","11,73951198"
"11,57639775","-0,9141490173","0,07993377686","11,90579178","11,94110278"
"11,58635075","-0,929866333","0,1428030396","11,9439624","11,98095497"
"11,59630275","-0,955612793","0,08921447754","11,99425781","12,03259637"
"11,60625575","-0,9514215088","0,2028282166","12,01925583","12,05855932"
"11,61620875","-1,038690033","0,1375639343","11,99410812","12,03978532"
"11,62616075","-1,00036972","0,1703457642","11,97913925","12,02204369"
"11,63611375","-0,9559121704","0,112565918","11,99680252","12,0353525"
"11,64606575","-1,069825287","0,03173400879","11,96192505","12,00971207"
"11,65601875","-0,9768685913","0,1086740112","11,92570038","11,96613604"
"11,66597075","-1,004860382","0,05598358154","11,86328018","11,9058933"
"11,67592375","-0,926124115","0,09071136475","11,91118057","11,94747492"
"11,68587575","-0,926124115","0,1103205872","11,90743835","11,9439091"
"11,69582875","-0,9256750488","-0,02409988403","11,90130112","11,93727035"
"11,70578075","-0,8836125183","-0,0347277832","11,86462738","11,89753588"
"11,71573375","-0,7852670288","-0,03652404785","11,8138829","11,84000877"
"11,72568575","-0,8192463684","-0,1222956848","11,81463135","11,84363267"
"11,73563875","-0,7798782349","-0,1011895752","11,75251053","11,77879252"
"11,74559075","-0,7373666382","-0,07185058594","11,68979095","11,71324398"
"11,75554375","-0,7186555481","-0,1553768921","11,46316223","11,48671825"
"11,76549575","-0,6767427063","-0,1760339355","11,28323639","11,30488355"
"11,77544875","-0,6448590088","-0,1776805115","11,1145372","11,13464641"
"11,78540175","-0,6197113037","-0,3803590393","10,9552684","10,97937252"
"11,79535375","-0,5725593567","-0,4990621948","10,71262299","10,73951482"
"11,80530675","-0,599203949","-0,4144880676","10,38675064","10,41227327"
"11,81525875","-0,5436694336","-0,4363426208","10,21490799","10,23866771"
"11,82521175","-0,5831872559","-0,5960604858","10,00130219","10,03600722"
"11,83516375","-0,533789978","-0,6276448059","9,819580078","9,854086597"
"11,84511675","-0,5679190063","-0,6262976074","9,631720734","9,66875509"
"11,85506875","-0,5745053101","-0,7592211914","9,474098511","9,521817881"
"11,86502175","-0,5752537537","-0,8337661743","9,379345551","9,433886043"
"11,87497375","-0,5764512634","-0,9208850098","9,363628235","9,426444663"
"11,88492675","-0,5846841431","-1,01683548","9,229207764","9,30344484"
"11,89487875","-0,5174739075","-0,8066725159","9,03311554","9,083813965"
"11,90483175","-0,6355783081","-0,9005273438","9,158854065","9,224939949"
"11,91478375","-0,7084767151","-1,242416382","9,135203247","9,246484526"
"11,92473675","-0,6251000977","-1,040336609","9,001531219","9,0829849"
"11,93468875","-0,6849755859","-0,9633966064","9,052575073","9,129427147"
"11,94464175","-0,8116122437","-1,047671356","9,116941223","9,212760008"
"11,95459375","-0,7364685059","-0,8235873413","9,068292389","9,135349409"
"11,96454675","-0,7649093628","-0,8367599487","9,021739197","9,092691113"
"11,97449975","-0,8018824768","-1,024619293","9,070238342","9,163082658"
"11,98445175","-0,8280780029","-1,001267853","8,94644577","9,040306544"
"11,99440475","-0,7095245361","-0,8976832581","8,909921722","8,983093309"
"12,00435675","-0,812510376","-0,9026229858","8,942553864","9,024642429"
"12,01430975","-0,8675958252","-0,7559280396","9,031468964","9,104481389"
"12,02426175","-0,8036787415","-0,7511380005","8,867110748","8,935085945"
"12,03421475","-0,8164022827","-0,8490344238","8,769064636","8,84781706"
"12,04416675","-0,8143066406","-0,8643026733","8,806786194","8,886483977"
"12,05411975","-0,8246351624","-0,7699987793","8,797056427","8,869110612"
"12,06407175","-0,7743397522","-0,7827223206","8,794062653","8,862719347"
"12,07402475","-0,7987390137","-0,7688012695","8,810378723","8,879854315"
"12,08397675","-0,720302124","-0,6557862854","8,882229309","8,935484783"
"12,09392975","-0,6872209167","-0,7970924377","8,746761017","8,809850012"
"12,10388175","-0,7432044983","-0,8454418945","8,81771347","8,889274198"
"12,11383475","-0,6954537964","-0,6176156616","8,820856934","8,869758854"
"12,12378675","-0,6358776855","-0,5776487732","8,850345612","8,891942194"
"12,13373975","-0,6632707214","-0,5831872559","8,832832031","8,876877667"
"12,14369175","-0,6017486572","-0,4712200928","8,918903046","8,951590996"
"12,15364475","-0,6370751953","-0,5016069031","8,801547089","8,838818102"
"12,16359775","-0,56866745","-0,3966751099","8,822653198","8,849855551"
"12,17354975","-0,5212161255","-0,2712359619","8,878187714","8,897609357"
"12,18350275","-0,5390290833","-0,3216810608","8,875792694","8,897961958"
"12,19345475","-0,5135820007","-0,2435435486","8,903335419","8,921460727"
"12,20340775","-0,4914280701","-0,1073268127","8,863218842","8,877480996"
"12,21335975","-0,4873864746","-0,1341210938","8,932075653","8,94636851"
"12,22331275","-0,4819976807","-0,1689985657","9,016350403","9,030805992"
"12,23326475","-0,4704716492","-0,08577163696","9,092841339","9,105408501"
"12,24321775","-0,5195695496","0,03502716064","9,083860016","9,098774215"
"12,25316975","-0,5315446472","0,01437011719","9,327553253","9,342697464"
"12,26312275","-0,4924758911","-0,04535568237","9,319919128","9,33303178"
"12,27307475","-0,5387297058","-0,1240919495","9,605525208","9,62142105"
"12,28302775","-0,5562432861","0,04460723877","9,730814667","9,746802064"
"12,29297975","-0,5804928589","-0,07798782349","9,89427475","9,911595577"
"12,30293275","-0,6255491638","-0,0975970459","10,12180161","10,14158295"
"12,31288475","-0,5382806396","-0,003742218018","10,31759445","10,33162694"
"12,32283775","-0,6385720825","-0,1615141296","10,48524582","10,50591457"
"12,33278975","-0,7598199463","-0,2125579834","10,776091","10,80493612"
"12,34274275","-0,7634124756","-0,1257385254","10,92143875","10,94880967"
"12,35269475","-0,7511380005","-0,08187973022","11,10031677","11,1260031"
"12,36264775","-0,8554710388","-0,2688409424","11,30793503","11,34343426"
"12,37260075","-0,9663903809","-0,2439926147","11,39655075","11,44005296"
"12,38255275","-0,9247769165","-0,1251397705","11,45732437","11,49526659"
"12,39250575","-0,9987231445","-0,2787203979","11,58351196","11,62982727"
"12,40245775","-1,020128632","-0,2633024597","11,66164948","11,70914425"
"12,41241075","-1,034947815","-0,2044747925","11,6799115","11,72745751"
"12,42236275","-1,090781708","-0,28081604","11,69158722","11,74571727"
"12,43231575","-1,030457153","-0,2948867798","11,69727539","11,74627821"
"12,44226775","-1,111289063","-0,2784210205","11,82645676","11,8818164"
"12,45222075","-1,118025055","-0,3608995056","11,77256882","11,83104412"
"12,46217275","-1,141526184","-0,4233197021","11,83903061","11,90146745"
"12,47212575","-1,115480347","-0,4343966675","11,88139252","11,9415445"
"12,48207775","-1,135987701","-0,6177653503","11,94980026","12,01956024"
"12,49203075","-1,113235016","-0,6994953918","11,88528442","11,9577829"
"12,50198275","-1,124162292","-0,6906637573","12,00114349","12,07345031"
"12,51193575","-1,073567505","-0,7159611511","11,92614944","11,99575709"
"12,52188775","-0,9470805359","-0,8086184692","11,97928894","12,04384444"
"12,53184075","-1,011746063","-0,927171936","11,8683696","11,94744637"
"12,54179275","-0,8881031799","-0,8132588196","11,77002411","11,83146587"
"12,55174575","-0,8548722839","-0,7009922791","11,64054337","11,69292293"
"12,56169738","-0,8021818542","-0,7758366394","11,66060165","11,71388275"
"12,57165037","-0,8231382751","-0,8635542297","11,53621033","11,59773388"
"12,58160338","-0,7705975342","-0,8008346558","11,4437027","11,4975427"
"12,59155537","-0,7217990112","-0,6756948853","11,257939","11,30127196"
"12,60150838","-0,7080276489","-0,7722441101","11,27200974","11,32059484"
"12,61146038","-0,7412585449","-0,6697073364","11,17201767","11,21659266"
"12,62141338","-0,6077362061","-0,5062472534","11,14252899","11,17056766"
"12,63136538","-0,6581813049","-0,6135740662","11,07576782","11,11225938"
"12,64131838","-0,6376739502","-0,5342390442","11,15076187","11,18174985"
"12,65127038","-0,6319857788","-0,5372328186","11,03654938","11,06767579"
"12,66122338","-0,673150177","-0,4242178345","11,0149942","11,04369454"
"12,67117538","-0,7259902954","-0,4504133606","11,22380997","11,25628022"
"12,68112837","-0,770148468","-0,6125262451","11,14582214","11,18917639"
"12,69108038","-0,7283853149","-0,5950126648","11,09133545","11,13114133"
"12,70103337","-0,822689209","-0,6065386963","11,02577179","11,07304612"
"12,71098538","-0,8683442688","-0,597557373","10,92922256","10,97993636"
"12,72093837","-0,8351133728","-0,5867797852","10,88536377","10,93310886"
"12,73089038","-0,8834628296","-0,6159690857","10,77908478","10,83275557"
"12,74084337","-0,9128018188","-0,5885760498","10,59736267","10,652874"
"12,75079538","-0,926124115","-0,5216651917","10,4324057","10,48641641"
"12,76074837","-0,9446855164","-0,5370831299","10,2957399","10,35292949"
"12,77070038","-0,9523196411","-0,523611145","10,19799316","10,25573722"
"12,78065337","-0,9713301086","-0,489332428","10,05878265","10,11741256"
"12,79060638","-0,9827064514","-0,4628375244","9,885293427","9,944795457"
"12,80055837","-0,9901908875","-0,3833528137","9,787546692","9,844973724"
"12,81051138","-1,006506958","-0,4339476013","9,713450775","9,775095536"
"12,82046337","-1,019230499","-0,4501139832","9,618398438","9,682717692"
"12,83041638","-0,9927355957","-0,3540138245","9,500443726","9,558727987"
"12,84036837","-1,028660889","-0,3300636292","9,44610672","9,50768202"
"12,85032138","-0,9864486694","-0,3312611389","9,391470337","9,448943328"
"12,86027337","-0,9747729492","-0,3439846802","9,353299713","9,410245655"
"12,87022638","-0,9726773071","-0,2993774414","9,291777649","9,347345071"
"12,88017837","-0,9482780457","-0,2713856506","9,249266052","9,301709731"
"12,89013138","-0,9457333374","-0,322130127","9,208700409","9,262739475"
"12,90008337","-0,927171936","-0,348924408","9,16529068","9,218673944"
"12,91003638","-0,9096583557","-0,3688330078","9,100026398","9,152813587"
"12,91998837","-0,8940907288","-0,3953279114","8,999285889","9,052227842"
"12,92994138","-0,8758287048","-0,4186793518","8,984766083","9,037056483"
"12,93989337","-0,8750802612","-0,4778063965","8,923842773","8,979367141"
"12,94984638","-0,8583151245","-0,5135820007","8,843010864","8,899399557"
"12,95979837","-0,8141569519","-0,4843927002","8,774603119","8,825596168"
"12,96975138","-0,8129594421","-0,5267546082","8,78732666","8,840558993"
"12,97970338","-0,8002359009","-0,5372328186","8,770860901","8,823661232"
"12,98965638","-0,7720944214","-0,4581971741","8,750353546","8,796292493"
"12,99960937","-0,775537262","-0,4245172119","8,781039734","8,82543663"
"13,00956138","-0,7752378845","-0,4400848389","8,842861176","8,887680362"
"13,01951438","-0,7708969116","-0,4378395081","8,909322968","8,953324591"
"13,02946638","-0,7711962891","-0,43409729","8,980574799","9,024073797"
"13,03941938","-0,799637146","-0,4083508301","9,089847565","9,134084449"
"13,04937138","-0,8003855896","-0,3909869385","9,194629669","9,237678422"
"13,05932438","-0,8122109985","-0,3737727356","9,321865082","9,36464422"
"13,06927637","-0,813558197","-0,3770658875","9,451794891","9,49423416"
"13,07922938","-0,8396040344","-0,379460907","9,552685089","9,597016095"
"13,08918137","-0,8369096375","-0,3445834351","9,654174042","9,69650617"
"13,09913438","-0,8448431396","-0,2939886475","9,802515564","9,843246448"
"13,10908637","-0,8710386658","-0,3261717224","9,935738525","9,979178142"
"13,11903938","-0,8870553589","-0,3866459656","10,01731888","10,06394753"
"13,12899137","-0,8931925964","-0,4204756165","10,05444168","10,10279121"
"13,13894438","-0,9011260986","-0,4851411438","10,10368927","10,15538906"
"13,14889637","-0,9351054382","-0,5065466309","10,32582733","10,38044901"
"13,15884938","-0,9089099121","-0,5025050354","10,307715","10,35990429"
"13,16880137","-0,8973838806","-0,5424719238","10,41878403","10,47141988"
"13,17875438","-0,9490264893","-0,6807843018","10,43225601","10,49743226"
"13,18870637","-0,880019989","-0,6569837952","10,61562469","10,67227954"
"13,19865938","-0,8707392883","-0,6857240295","10,64690964","10,7044425"
"13,20861237","-0,8997789001","-0,7117698669","10,84375031","10,9042716"
"13,21856438","-0,9018745422","-0,6899153137","10,9233847","10,9822445"
"13,22851737","-0,8722361755","-0,6515950012","11,08819199","11,14151576"
"13,23846938","-0,8259823608","-0,6530918884","11,24476639","11,29396064"
"13,24842237","-0,9148974609","-0,7782316589","11,42035126","11,48334031"
"13,25837438","-0,8791218567","-0,6584806824","11,55836426","11,61043653"
"13,26832737","-0,8225395203","-0,5806425476","11,62437698","11,66789858"
"13,27827938","-0,8479866028","-0,7198530579","11,68589905","11,73871825"
"13,28823237","-0,7764353943","-0,7370672607","11,83873123","11,8870382"
"13,29818438","-0,7729925537","-0,6608757019","11,76703033","11,81089654"
"13,30813737","-0,7143145752","-0,595461731","11,76209061","11,79879635"
"13,31808938","-0,7617658997","-0,6051914978","11,79502213","11,83507883"
"13,32804237","-0,6849755859","-0,6180647278","11,78155014","11,81761902"
"13,33799438","-0,7397616577","-0,7352709961","11,73724228","11,78349384"
"13,34794737","-0,7677534485","-0,7345225525","11,7622403","11,81013402"
"13,35789938","-0,7604187012","-0,6339317322","11,7064064","11,74819377"
"13,36785237","-0,7159611511","-0,6448590088","11,62647263","11,6663323"
"13,37780438","-0,7523355103","-0,724044342","11,59683426","11,64374569"
"13,38775738","-0,7887098694","-0,7379653931","11,61509628","11,66520972"
"13,39770938","-0,7485932922","-0,6536906433","11,47079636","11,51376882"
"13,40766238","-0,7315287781","-0,5858816528","11,49444717","11,53259327"
"13,41761438","-0,8405021667","-0,6402186584","11,49309998","11,54156276"
"13,42756738","-0,8541238403","-0,5807922363","11,55267609","11,59875734"
"13,43751938","-0,8557704163","-0,597557373","11,4808255","11,52817297"
"13,44747238","-0,8881031799","-0,4694238281","11,53321655","11,57688084"
"13,45742538","-0,9265731812","-0,3582051086","11,45807281","11,50105566"
"13,46737738","-0,9199868774","-0,3098556519","11,45971939","11,50076323"
"13,47733037","-0,9148974609","-0,3367996216","11,52243896","11,56360978"
"13,48728238","-0,9538165283","-0,2987786865","11,50058441","11,54393678"
"13,49723537","-0,8663983154","-0,1357676697","11,31736542","11,35129239"
"13,50718738","-0,929866333","-0,214354248","11,19956039","11,24014022"
"13,51714037","-0,9178912354","-0,1769320679","11,23638382","11,27520069"
"13,52709238","-0,8961863708","-0,1860630798","11,22111557","11,25838373"
"13,53704537","-0,9062155151","-0,06915618896","11,0853479","11,1225423"
"13,54699738","-0,8765771484","-0,01257385254","10,95826218","10,99327319"
"13,55695037","-0,9250762939","-0,1260379028","10,92383377","10,96365796"
"13,56690308","-0,8485853577","-0,2692900085","10,79540085","10,83204938"
"13,57685608","-0,890198822","-0,2107617188","10,73582474","10,77473003"
"13,58680808","-0,7978408813","0,09654922485","10,577005","10,60749295"
"13,59676108","-0,759969635","0,03487747192","10,484198","10,51176379"
"13,60671308","-0,7800279236","-0,2459385681","10,38315811","10,41532053"
"13,61666608","-0,7553292847","-0,3011737061","10,3792662","10,41107078"
"13,62661808","-0,6747967529","-0,2429447937","10,30517029","10,33009717"
"13,63657108","-0,6147715759","-0,1737886047","10,0382753","10,05858427"
"13,64652308","-0,6423143005","-0,1514849854","9,914033661","9,935973973"
"13,65647608","-0,5896238708","-0,08128097534","9,818532257","9,836556236"
"13,66642908","-0,6122268677","-0,3047662354","9,786199493","9,810066499"
"13,67638108","-0,6083349609","-0,2906954956","9,570198669","9,593918796"
"13,68633408","-0,5397775269","-0,1821711731","9,439670105","9,456845024"
"13,69628608","-0,5974076843","-0,3314108276","9,265282745","9,290435589"
"13,70623908","-0,5857319641","-0,3534150696","9,212292938","9,237658"
"13,71619108","-0,5385800171","-0,2429447937","9,037905579","9,057197572"
"13,72614408","-0,545615387","-0,2724334717","8,935518494","8,956305427"
"13,73609608","-0,5266049194","-0,367635498","8,82594635","8,84928232"
"13,74604908","-0,5168751526","-0,4655319214","8,703500977","8,731254729"
"13,75600108","-0,5047503662","-0,5507048035","8,643176422","8,675398975"
"13,76595408","-0,4794529724","-0,5066963196","8,482111359","8,510747876"
"13,77590608","-0,4899311829","-0,4424798584","8,485254822","8,510897155"
"13,78585908","-0,5318440247","-0,5674699402","8,472531281","8,508152943"
"13,79581108","-0,5502557373","-0,7002438354","8,418343964","8,465319716"
"13,80576408","-0,5563929749","-0,7005432129","8,353977814","8,401742632"
"13,81571608","-0,5770500183","-0,6893165588","8,395740967","8,44373202"
"13,82566908","-0,5974076843","-0,6976991272","8,38720871","8,43735444"
"13,83562108","-0,6146218872","-0,7475454712","8,432265015","8,487619076"
"13,84557408","-0,6271957397","-0,7946974182","8,484207001","8,544395058"
"13,85552608","-0,5923182678","-0,8538244629","8,457712097","8,521311581"
"13,86547908","-0,6191125488","-0,9328601074","8,491990814","8,56547934"
"13,87543108","-0,6441105652","-0,9006770325","8,611442413","8,682340582"
"13,88538408","-0,6673123169","-0,8644523621","8,649613037","8,718279034"
"13,89533608","-0,705333252","-0,886456604","8,696615295","8,770086539"
"13,90528908","-0,7123686218","-0,8894503784","8,800499268","8,873971962"
"13,91524108","-0,7574249268","-0,949176178","8,830886078","8,913987708"
"13,92519408","-0,7750881958","-0,905766449","8,936566315","9,015730257"
"13,93514708","-0,7756869507","-0,8168513489","8,979676666","9,050056873"
"13,94509908","-0,7831713867","-0,8574169922","9,097631378","9,171445797"
"13,95505208","-0,7972421265","-0,9313632202","9,154064026","9,235795615"
"13,96500408","-0,7788304138","-0,8887019348","9,251661072","9,326821566"
"13,97495708","-0,8000862122","-0,8412506104","9,305848389","9,377987778"
"13,98490908","-0,8063731384","-0,8213420105","9,404792633","9,474965161"
"13,99486208","-0,8147557068","-0,7890092468","9,545200653","9,612347162"
"14,00481408","-0,8231382751","-0,7997868347","9,647138672","9,71516856"
"14,01476708","-0,8446934509","-0,8126600647","9,728419647","9,79877912"
"14,02471908","-0,8390052795","-0,7424560547","9,798773346","9,862612734"
"14,03467208","-0,8364605713","-0,6676116943","9,935139771","9,99261597"
"14,04462408","-0,8161029053","-0,669407959","10,04411316","10,09942276"
"14,05457708","-0,8032296753","-0,7232958984","10,12838791","10,18590087"
"14,06452908","-0,809815979","-0,6713539124","10,22912842","10,2830728"
"14,07448208","-0,7424560547","-0,4544549561","10,23406815","10,27102337"
"14,08443408","-0,7592211914","-0,4808001709","10,3607048","10,39960526"
"14,09438708","-0,8015830994","-0,4691244507","10,46234344","10,50348721"
"14,10433908","-0,742306366","-0,2983296204","10,59856018","10,62871099"
"14,11429208","-0,8078700256","-0,3881428528","10,65708847","10,69471101"
"14,12424408","-0,7309300232","-0,3007246399","10,66906357","10,69829946"
"14,13419708","-0,7285350037","-0,2191442871","10,7654631","10,79231131"
"14,14414908","-0,8428971863","-0,2571652222","10,93925171","10,97469077"
"14,15410208","-0,7747888184","-0,1387614441","10,93850327","10,9667865"
"14,16405508","-0,7571255493","-0,09969268799","11,05930206","11,08563665"
"14,17400708","-0,7029382324","0,02185455322","11,01469482","11,0371238"
"14,18396008","-0,6899153137","-0,05029541016","11,27605133","11,2972495"
"14,19391208","-0,8110134888","-0,06735992432","11,15360596","11,18325561"
"14,20386508","-0,6486012268","0,1471440125","11,39744888","11,41683739"
"14,21381708","-0,7454498291","0,02080673218","11,42723694","11,45154454"
"14,22377008","-0,7741900635","0,02859054565","11,572435","11,59833779"
"14,23372208","-0,7839198303","0,1389111328","11,66509232","11,69222842"
"14,24367508","-0,8132588196","-0,06990463257","11,57647659","11,60521809"
"14,25362708","-0,8526269531","0,05852828979","11,76418625","11,7951887"
"14,26358008","-0,772842865","0,1369651794","11,73529633","11,76151459"
"14,27353208","-0,915945282","-0,06481521606","11,75595337","11,79175968"
"14,28348508","-0,7888595581","-0,0477507019","11,76732971","11,79383856"
"14,29343708","-0,8693920898","-0,1465452576","11,81298477","11,84584009"
"14,30339008","-0,8812174988","-0,06197113037","11,7846936","11,81775732"
"14,31334208","-0,9044192505","-0,01197509766","11,94560898","11,97980348"
"14,32329508","-0,9527687073","-0,2386038208","11,83304306","11,87373606"
"14,33324708","-0,9650431824","-0,1589694214","11,88917633","11,92933751"
"14,34320008","-0,9562115479","-0,09999206543","11,83543808","11,8744235"
"14,35315208","-1,040935364","-0,3713777161","11,76298874","11,81479462"
"14,36310508","-1,046773224","-0,4019142151","11,71284302","11,76639115"
"14,37305708","-0,9448352051","-0,2883004761","11,73799072","11,77948458"
"14,38301008","-1,034648438","-0,4547543335","11,59818146","11,65311598"
"14,39296208","-1,056353302","-0,5266049194","11,57228531","11,63232489"
"14,40291508","-0,9982740784","-0,4535568237","11,37529495","11,42801821"
"14,41286708","-0,972228241","-0,4656816101","11,32484985","11,37604111"
"14,42282008","-1,023421783","-0,5147795105","11,25210114","11,31026835"
"14,43277308","-0,9868977356","-0,5935157776","11,13953522","11,19890499"
"14,44272508","-0,9836045837","-0,716559906","10,99628311","11,06341621"
"14,45267808","-0,9825567627","-0,7408094788","10,88162155","10,95097731"
"14,46263008","-0,9822573853","-0,7797285461","10,82997894","10,90235067"
"14,47258308","-0,9512718201","-0,8146060181","10,70289322","10,77591872"
"14,48253508","-0,9660910034","-0,8119116211","10,62864761","10,70330241"
"14,49248808","-0,9216334534","-0,7668553162","10,49123337","10,55951954"
"14,50244008","-0,8788224792","-0,7780819702","10,34798126","10,414339"
"14,51239308","-0,8662486267","-0,8017327881","10,32986893","10,39708393"
"14,52234508","-0,9000782776","-0,8155041504","10,26131149","10,33294254"
"14,53229808","-0,8846603394","-0,793200531","10,13093262","10,20037189"
"14,54225008","-0,8277786255","-0,7378157043","9,983040161","10,04443529"
"14,55220308","-0,8482859802","-0,8381071472","9,921817474","9,993221437"
"14,56215521","-0,8388555908","-0,8617579651","9,845625916","9,918803111"
"14,57210821","-0,8340655518","-0,7737409973","9,713151398","9,779552676"
"14,58206021","-0,8122109985","-0,7214996338","9,581425323","9,642819072"
"14,59201321","-0,7988887024","-0,7741900635","9,49640213","9,561341267"
"14,60196521","-0,7915539551","-0,7997868347","9,436077576","9,50293516"
"14,61191821","-0,7873626709","-0,7170089722","9,365274811","9,425625397"
"14,62187021","-0,7961943054","-0,6530918884","9,302854614","9,359677257"
"14,63182321","-0,7984396362","-0,6414161682","9,321116638","9,377213655"
"14,64177521","-0,8092172241","-0,6677613831","9,271419983","9,330593029"
"14,65172821","-0,8247848511","-0,6824308777","9,200018463","9,262090567"
"14,66168021","-0,8153544617","-0,6322851563","9,138496399","9,196559348"
"14,67163321","-0,8387059021","-0,6620732117","9,140592041","9,202836051"
"14,68158621","-0,839304657","-0,6391708374","9,118737488","9,179561266"
"14,69153821","-0,8452922058","-0,5671705627","9,088650055","9,145477636"
"14,70149121","-0,8375083923","-0,5668711853","9,019942932","9,07646042"
"14,71144321","-0,8571176147","-0,6182144165","8,999285889","9,061124995"
"14,72139621","-0,8678952026","-0,6171665955","9,032367096","9,094932218"
"14,73134821","-0,8720864868","-0,579894104","9,035211182","9,095705201"
"14,74130121","-0,8743318176","-0,5110372925","9,028475189","9,085096559"
"14,75125321","-0,8991801453","-0,4733157349","9,066346436","9,123112978"
"14,76120621","-0,9145980835","-0,4914280701","9,110055542","9,169029566"
"14,77115821","-0,9017248535","-0,4936734009","9,110205231","9,168023805"
"14,78111121","-0,8904981995","-0,4234693909","9,12547348","9,178593553"
"14,79106321","-0,9101074219","-0,3969744873","9,190588074","9,244068012"
"14,80101621","-0,9104067993","-0,4186793518","9,254355469","9,308449284"
"14,81096821","-0,9101074219","-0,3855981445","9,295370178","9,347774505"
"14,82092121","-0,8869056702","-0,375718689","9,320368195","9,370006909"
"14,83087321","-0,8984317017","-0,3725752258","9,388476563","9,438722582"
"14,84082621","-0,8940907288","-0,3595523071","9,479038239","9,52789809"
"14,85077821","-0,9053173828","-0,3159928894","9,560618591","9,608583606"
"14,86073121","-0,8810678101","-0,3065625","9,649982758","9,694969225"
"14,87068321","-0,9153465271","-0,3290158081","9,750423889","9,798820168"
"14,88063621","-0,8830137634","-0,2915936279","9,864486694","9,908220723"
"14,89058821","-0,8761280823","-0,2633024597","9,914782104","9,956898753"
"14,90054121","-0,8779243469","-0,3107537842","9,992769928","10,03607343"
"14,91049321","-0,8695417786","-0,3022215271","10,08273285","10,12466999"
"14,92044621","-0,8626560974","-0,2896476746","10,12973511","10,17052627"
"14,93039821","-0,8424481201","-0,2796185303","10,18661682","10,22521724"
"14,94035121","-0,8470884705","-0,287252655","10,2638562","10,30275774"
"14,95030321","-0,8279283142","-0,3255729675","10,3780687","10,41613042"
"14,96025621","-0,8334667969","-0,2995271301","10,42537033","10,46292167"
"14,97020821","-0,8217910767","-0,2707868958","10,52760773","10,56310516"
"14,98016121","-0,8434959412","-0,326920166","10,64616119","10,68452668"
"14,99011421","-0,8277786255","-0,3171903992","10,71950867","10,75610028"
"15,00006621","-0,8129594421","-0,2677931213","10,80572937","10,8395758"
"15,01001921","-0,8434959412","-0,3344046021","10,89404572","10,93176765"
"15,01997121","-0,8408015442","-0,3544628906","10,98655334","11,0243796"
"15,02992421","-0,8428971863","-0,3155438232","11,09537704","11,13182085"
"15,03987621","-0,8704399109","-0,3327580261","11,17590958","11,21469342"
"15,04982921","-0,8833131409","-0,3559597778","11,32200577","11,36198768"
"15,05978121","-0,8587641907","-0,3606001282","11,44130768","11,47915632"
"15,06973421","-0,8750802612","-0,3797602844","11,47603546","11,51561432"
"15,07968621","-0,8937913513","-0,3782633972","11,58470947","11,6252931"
"15,08963921","-0,8801696777","-0,4192781067","11,65401535","11,69472388"
"15,09959121","-0,8836125183","-0,4203259277","11,7369429","11,77765994"
"15,10954421","-0,9078620911","-0,4736151123","11,77900543","11,82342987"
"15,11949621","-0,952918396","-0,5228627014","11,75834839","11,80847982"
"15,12944921","-0,8604107666","-0,4692741394","11,8113382","11,85192958"
"15,13940121","-0,9312135315","-0,6114784241","11,89291855","11,94498121"
"15,14935421","-0,9210346985","-0,6144721985","11,89306824","11,94449468"
"15,15930621","-0,8539741516","-0,5444178772","11,85878952","11,90195579"
"15,16925921","-0,8915460205","-0,6355783081","11,91043213","11,96065247"
"15,17921121","-0,8560697937","-0,6390211487","11,92031158","11,96808388"
"15,18916421","-0,8527766418","-0,6457571411","11,9081868","11,95613412"
"15,19911621","-0,8770262146","-0,6706054688","11,85878952","11,91007034"
"15,20906921","-0,8304730225","-0,6264472961","11,80774567","11,85347963"
"15,21902121","-0,8114625549","-0,6911128235","11,76822784","11,81639941"
"15,22897421","-0,807121582","-0,7667056274","11,75011551","11,80273262"
"15,23892621","-0,7659571838","-0,6253994751","11,62752045","11,66949213"
"15,24887921","-0,7842192078","-0,6634204102","11,59922928","11,64462306"
"15,25883121","-0,750838623","-0,6852749634","11,45657593","11,50158652"
"15,26878421","-0,6933581543","-0,6746470642","11,34026779","11,38145719"
"15,27873621","-0,7502398682","-0,7393125916","11,24207199","11,29130752"
"15,28868921","-0,7168592834","-0,6605763245","11,17546051","11,2178949"
"15,29864221","-0,6966513062","-0,6032455444","10,97158447","11,01021771"
"15,30859421","-0,7150630188","-0,6339317322","10,89434509","10,93617573"
"15,31854721","-0,6978488159","-0,7146139526","10,72295151","10,76937116"
"15,32849921","-0,7129673767","-0,6732998657","10,58059753","10,62594463"
"15,33845221","-0,6631210327","-0,6212081909","10,51039352","10,5495972"
"15,34840421","-0,7068301392","-0,6400689697","10,34813095","10,39197341"
"15,35835721","-0,6608757019","-0,539178772","10,26340714","10,29878616"
"15,36830921","-0,6978488159","-0,5203179932","10,08752289","10,12501071"
"15,37826221","-0,6973997498","-0,5959107971","10,0036972","10,04566742"
"15,38821421","-0,6891668701","-0,5083428955","9,901010742","9,937976514"
"15,39816721","-0,6839277649","-0,4743635559","9,86493576","9,899986643"
"15,40811921","-0,7226971436","-0,5411247253","9,863139496","9,904374177"
"15,41807221","-0,7198530579","-0,5357359314","9,707912292","9,749295487"
"15,42802421","-0,6710545349","-0,443228302","9,58771225","9,621382006"
"15,43797721","-0,6400689697","-0,286204834","9,43562851","9,461642926"
"15,44792921","-0,7393125916","-0,4388873291","9,568402405","9,606952158"
"15,45788221","-0,7643106079","-0,4203259277","9,442514191","9,482716849"
"15,46783421","-0,6662644958","-0,3528163147","9,344917145","9,375279418"
"15,47778721","-0,8021818542","-0,3894900513","9,278006287","9,320761711"
"15,48773921","-0,747096405","-0,1850152588","9,217232666","9,249311418"
"15,49769221","-0,7458988953","-0,2249821472","9,122629395","9,155836892"
"15,50764421","-0,743354187","-0,3525169373","9,146429901","9,18335579"
"15,51759721","-0,7319778442","-0,2640509033","9,078022156","9,11131169"
"15,52754921","-0,7012916565","-0,2273771667","8,889264679","8,919783456"
"15,53750221","-0,6843768311","-0,288899231","8,921148376","8,95202339"
"15,54745421","-0,7144642639","-0,309256897","8,903485107","8,937457472"
"15,55740721","-0,6734495544","-0,2799179077","8,853638763","8,883625819"
"15,56736033","-0,6894662476","-0,2650987244","8,755293274","8,786398657"
"15,57731233","-0,6884184265","-0,2487826538","8,758586426","8,789121055"
"15,58726533","-0,6785389709","-0,2601589966","8,713081055","8,743333421"
"15,59721733","-0,6487509155","-0,2966830444","8,718769226","8,747904629"
"15,60717033","-0,6451583862","-0,2547702026","8,634344788","8,662161804"
"15,61712233","-0,627046051","-0,2339634705","8,667425995","8,693227193"
"15,62707533","-0,6216572571","-0,3141966248","8,663983154","8,691937722"
"15,63702733","-0,597557373","-0,38963974","8,628057861","8,657498276"
"15,64698033","-0,5821394348","-0,3183879089","8,598569183","8,624131793"
"15,65693233","-0,5635780334","-0,2712359619","8,580606537","8,603371298"
"15,66688533","-0,5785469055","-0,3429368591","8,597221985","8,623488161"
"15,67683733","-0,5713618469","-0,3501219177","8,619675293","8,645683424"
"15,68679033","-0,56866745","-0,3498225403","8,647816772","8,673551372"
"15,69674233","-0,5586383057","-0,3631448364","8,660690002","8,686282418"
"15,70669533","-0,556842041","-0,4444258118","8,677754517","8,706951867"
"15,71664733","-0,5981561279","-0,449664917","8,760083313","8,79198777"
"15,72660033","-0,5547463989","-0,4206253052","8,862021332","8,889324569"
"15,73655233","-0,5706134033","-0,463585968","8,884175262","8,914543269"
"15,74650533","-0,5583389282","-0,4966671753","8,954828339","8,985954107"
"15,75645733","-0,5840853882","-0,5430706787","9,109456787","9,144303388"
"15,76641033","-0,5550457764","-0,5894741821","9,223220215","9,258690337"
"15,77636233","-0,5960604858","-0,5763015747","9,344767456","9,381475919"
"15,78631533","-0,5881269836","-0,6095324707","9,517358551","9,554974462"
"15,79626733","-0,6433621216","-0,6683601379","9,71165451","9,755862516"
"15,80622033","-0,6631210327","-0,6445596313","9,781858521","9,825474174"
"15,81617233","-0,6626719666","-0,7270381165","9,901908875","9,950654145"
"15,82612533","-0,7057823181","-0,7903564453","10,12434631","10,17964539"
"15,83607733","-0,756227417","-0,7370672607","10,33780243","10,39159791"
"15,84603033","-0,7873626709","-0,7009922791","10,42357407","10,47674694"
"15,85598233","-0,7849676514","-0,6734495544","10,50769913","10,55847761"
"15,86593533","-0,8349636841","-0,7699987793","10,67475174","10,73500755"
"15,87588733","-0,8234376526","-0,8756790161","10,77070221","10,83756843"
"15,88584033","-0,8259823608","-0,8515791321","10,83970871","10,90443574"
"15,89579233","-0,9533674622","-0,7659571838","11,00257004","11,07032734"
"15,90574533","-0,9883946228","-0,7348219299","11,10301117","11,17111204"
"15,91569833","-0,9134005737","-0,6707551575","11,13609238","11,19360382"
"15,92565033","-0,9639953613","-0,7975415039","11,19297409","11,26268301"
"15,93560333","-1,025816803","-0,8514294434","11,25225082","11,33094792"
"15,94555533","-1,016685791","-0,5959107971","11,34191437","11,40297247"
"15,95550833","-0,9801617432","-0,6881190491","11,4914534","11,55368885"
"15,96546033","-0,9957293701","-0,763711853","11,45103745","11,51959163"
"15,97541333","-0,9457333374","-0,6713539124","11,55282578","11,61089622"
"15,98536533","-1,019380188","-0,7515870667","11,53980286","11,60909424"
"15,99531833","-0,9554631042","-0,6074368286","11,58680511","11,64199047"
"16,00527033","-0,9190887451","-0,5384303284","11,67122955","11,7197368"
"16,01522333","-0,9642947388","-0,5400769043","11,67811523","11,73029935"
"16,02517533","-0,9310638428","-0,5551954651","11,67287613","11,72310364"
"16,03512833","-0,9398954773","-0,5792953491","11,56794434","11,62051302"
"16,04508033","-0,8611592102","-0,4740641785","11,57617722","11,6178402"
"16,05503333","-0,8454418945","-0,4890330505","11,62452667","11,66548523"
