Time (s),Acceleration x (m/s^2),Acceleration y (m/s^2),Acceleration z (m/s^2),Absolute acceleration (m/s^2)
"0,002149041742","-3,667972412","-0,03218307495","9,1079599","9,818858941"
"0,01210204163","-3,670666809","0,01856140137","9,097182312","9,809835135"
"0,02205504174","-3,653302917","0,04954696655","9,096583557","9,802903117"
"0,03200804163","-3,643423462","0,04685256958","9,097481689","9,80004606"
"0,04196204175","-3,662134552","-0,0130229187","9,124725037","9,832192333"
"0,05191504164","-3,669169922","-0,06915618896","9,14657959","9,855328949"
"0,06186804175","-3,644171906","-0,06212081909","9,127718811","9,828484042"
"0,07182104164","-3,617377625","-0,03981719971","9,097182312","9,790083366"
"0,08177504176","-3,576811981","-0,01197509766","9,106313324","9,783591861"
"0,09172804165","-3,529660034","0,01511856079","9,085356903","9,746919441"
"0,1016810418","-3,550466766","0,008681945801","9,078471222","9,748052593"
"0,1116340416","-3,551963654","-0,01841171265","9,074729004","9,74512654"
"0,1215870418","-3,505859528","-0,06780899048","9,108558655","9,760199273"
"0,1315410417","-3,478915558","-0,09205856323","9,126970367","9,767953538"
"0,1414940418","-3,483855286","-0,04864883423","9,106313324","9,750105472"
"0,1514470417","-3,511098633","-0,03308120728","9,071286163","9,727134246"
"0,1614000418","-3,462150421","-0,08008346558","9,056167603","9,695724344"
"0,1713540417","-3,406316528","-0,1365161133","9,110654297","9,727571673"
"0,1813070416","-3,401077423","-0,1454974365","9,116342468","9,731197107"
"0,1912600417","-3,441343689","-0,1387614441","9,098828888","9,728863667"
"0,2012130416","-3,526815948","-0,09235794067","9,090296631","9,750920652"
"0,2111660417","-3,615431671","-0,02424957275","9,120533752","9,811017793"
"0,2211200416","-3,593726807","0,01706451416","9,156459045","9,836457991"
"0,2310730417","-3,578757935","0,01257385254","9,17816391","9,851211053"
"0,2410260416","-3,622766418","-0,02589614868","9,153016205","9,843922632"
"0,2509790417","-3,690874786","-0,06526428223","9,142687683","9,859794835"
"0,2609330416","-3,689078522","-0,06945556641","9,117689667","9,835974241"
"0,2708860417","-3,61438385","-0,005089416504","9,097481689","9,789176146"
"0,2808390416","-3,586392059","0,03203338623","9,080267487","9,762914102"
"0,2907920417","-3,532953186","0,06735992432","9,069938965","9,733965708"
"0,3007450416","-3,489992523","0,04385879517","9,112151184","9,757728763"
"0,3106990417","-3,478167114","-0,00419128418","9,14657959","9,785580322"
"0,3206520416","-3,532653809","-0,0252973938","9,166338501","9,823545409"
"0,3306050417","-3,593577118","-0,007035369873","9,136101379","9,817443375"
"0,3405580416","-3,640579376","0,005089416504","9,091494141","9,793319652"
"0,3505110417","-3,617078247","0,01047821045","9,083710327","9,777379922"
"0,3604650416","-3,56169342","0,02694396973","9,097481689","9,769880198"
"0,3704180417","-3,479065247","0,04086502075","9,094637604","9,737453367"
"0,3803710416","-3,391497345","0,04475692749","9,071884918","9,685213131"
"0,3903240417","-3,362008667","0,03173400879","9,058562622","9,66238408"
"0,4002780416","-3,348686371","-0,001347198486","9,062604218","9,66149561"
"0,4102310417","-3,348237305","-0,06885681152","9,037306824","9,637860184"
"0,4201840416","-3,415148163","-0,1158590698","9,034163361","9,658818143"
"0,4301370417","-3,466042328","-0,1088237","9,070388031","9,710676138"
"0,4400910416","-3,423231354","-0,06526428223","9,094038849","9,717217447"
"0,4500440417","-3,330574036","-0,02589614868","9,123527527","9,712473864"
"0,4599970416","-3,320095825","-0,003143463135","9,131910095","9,716729293"
"0,4699500417","-3,40496933","-0,01167572021","9,100774841","9,716895346"
"0,4799030416","-3,468287659","-0,02769241333","9,075776825","9,715941083"
"0,4898570417","-3,481160889","-0,02335144043","9,054820404","9,700968971"
"0,4998100416","-3,451372833","-0,03847000122","9,071286163","9,705755356"
"0,5097630417","-3,437152405","-0,07634124756","9,108558655","9,735794031"
"0,5197160416","-3,543132019","-0,08382568359","9,153016205","9,815218637"
"0,5296690417","-3,720962219","-0,09595046997","9,163045349","9,890205579"
"0,5396230416","-3,770658875","-0,09175918579","9,122330017","9,871331878"
"0,5495760418","-3,742816772","-0,03861968994","9,100475464","9,840163746"
"0,5595290416","-3,731141052","0,01002914429","9,131161652","9,864057342"
"0,5694820418","-3,739523621","0,04640350342","9,175319824","9,908212961"
"0,5794360416","-3,766617279","0,08666976929","9,170679474","9,914448012"
"0,5893890418","-3,769311676","0,1053808594","9,144783325","9,891707522"
"0,5993420416","-3,702400818","0,09894424438","9,111702118","9,835683874"
"0,6092950418","-3,649710388","0,07200027466","9,117839355","9,821433931"
"0,6192486666","-3,647465057","0,03772155762","9,125323792","9,827357659"
"0,6292026667","-3,650309143","0,0005987548828","9,131760406","9,834317735"
"0,6391556666","-3,617976379","-0,04176315308","9,108708344","9,801023667"
"0,6491086667","-3,58160202","-0,04640350342","9,099128265","9,778760735"
"0,6590616666","-3,566782837","-0,03143463135","9,092092896","9,766733393"
"0,6690156667","-3,559597778","-0,03263214111","9,08221344","9,75491682"
"0,6789686666","-3,557951202","-0,02918930054","9,085805969","9,757650275"
"0,6889216667","-3,570824432","-0,01930984497","9,107510834","9,782531042"
"0,6988746666","-3,604055328","-0,02335144043","9,11140274","9,798337614"
"0,7088276667","-3,627406769","-0,001496887207","9,082063751","9,77967096"
"0,7187816666","-3,656446381","0,03502716064","9,052126007","9,762776874"
"0,7287346667","-3,632645874","0,07454498291","9,062753906","9,763973646"
"0,7386876666","-3,564238129","0,08187973022","9,127269745","9,798854562"
"0,7486406667","-3,532055054","0,06227050781","9,168284454","9,8253107"
"0,7585946666","-3,584895172","0,02724334717","9,150770874","9,827961293"
"0,7685476667","-3,631747742","-0,02020797729","9,091494141","9,790059537"
"0,7785006666","-3,650159454","-0,03712280273","9,047036591","9,755711825"
"0,7884536667","-3,62022171","-0,07798782349","9,062753906","9,759385006"
"0,7984066666","-3,59687027","-0,1013392639","9,127269745","9,81095298"
"0,8083606667","-3,583547974","-0,09565109253","9,153315582","9,830267105"
"0,8183136666","-3,532953186","-0,09086105347","9,150321808","9,809097978"
"0,8282666667","-3,526516571","-0,07918533325","9,152866516","9,809054741"
"0,8382196666","-3,560944977","-0,102387085","9,16409317","9,832162319"
"0,8481726667","-3,607498169","-0,107177124","9,162446594","9,847637157"
"0,8581266666","-3,584895172","-0,07708969116","9,144334259","9,822233211"
"0,8680796667","-3,530857544","-0,02005828857","9,149872742","9,807524077"
"0,8780326666","-3,557951202","0,005239105225","9,151818695","9,819105338"
"0,8879856667","-3,624263306","0,001197509766","9,117989044","9,811881071"
"0,8979396666","-3,627556458","-0,005089416504","9,105714569","9,80169524"
"0,9078926668","-3,537294159","-0,01481918335","9,126820679","9,788336185"
"0,9178456666","-3,441643066","-0,04670288086","9,151070251","9,776971663"
"0,9277986668","-3,416195984","-0,1050814819","9,161249084","9,778032619"
"0,9377516666","-3,487148438","-0,1541793823","9,138646088","9,78257777"
"0,9477056668","-3,517684937","-0,1395098877","9,112001495","9,768425747"
"0,9576586667","-3,505260773","-0,0643661499","9,115594025","9,766527044"
"0,9676116668","-3,456013184","-0,00628692627","9,107211456","9,740912029"
"0,9775646667","-3,366948395","0,0007484436035","9,112300873","9,714441273"
"0,9875176668","-3,376977539","-0,007185058594","9,103918304","9,710064748"
"0,9974716667","-3,496129761","-0,009580078125","9,110654297","9,758434137"
"1,007424667","-3,589535522","0,005538482666","9,121880951","9,802729621"
"1,017377667","-3,604504395","0,00419128418","9,123677216","9,809890694"
"1,027330667","-3,576512604","-0,01945953369","9,13954422","9,814432721"
"1,037284667","-3,515589294","-0,00643661499","9,153914337","9,805792024"
"1,047237667","-3,503464508","0,03562591553","9,156459045","9,80389081"
"1,057190667","-3,488495636","0,08352630615","9,141789551","9,785136414"
"1,067143667","-3,440445557","0,07993377686","9,120683441","9,748329163"
"1,077096667","-3,436104584","0,03876937866","9,125623169","9,751169981"
"1,087050667","-3,475323029","-0,002844085693","9,137598267","9,776174115"
"1,097003667","-3,518882446","-0,04490661621","9,127419434","9,782348174"
"1,106956667","-3,564836884","-0,04206253052","9,129365387","9,800772604"
"1,116909667","-3,556604004","-0,02409988403","9,145082703","9,812367221"
"1,126863667","-3,501069489","-0,01017883301","9,17112854","9,816679167"
"1,136816667","-3,465593262",0,"9,171577606","9,804497562"
"1,146769667","-3,451672211","-0,01916015625","9,150770874","9,780133729"
"1,156722667","-3,48565155","0,005239105225","9,109756165","9,753842912"
"1,166675667","-3,53250412","0,03996688843","9,094038849","9,756112202"
"1,176629667","-3,567381592","0,04071533203","9,08924881","9,764338845"
"1,186582667","-3,530857544","-0,02020797729","9,109456787","9,76982939"
"1,196535667","-3,458857269","-0,06900650024","9,12427597","9,75811803"
"1,206488667","-3,45286972","-0,03936813354","9,128018188","9,759332723"
"1,216441667","-3,445534973","0,03338058472","9,150172119","9,777447281"
"1,226395667","-3,495830383","0,07454498291","9,153465271","9,798587321"
"1,236348667","-3,528013458","0,02724334717","9,146429901","9,803305621"
"1,246301667","-3,542084198","-0,02814147949","9,127120056","9,790376547"
"1,256254667","-3,554059296","-0,03308120728","9,126221924","9,793893937"
"1,266208667","-3,481909332","0,01077758789","9,127419434","9,769011939"
"1,276161667","-3,384162598","0,03966751099","9,122629395","9,730184842"
"1,286114667","-3,350482635","0,01137634277","9,154513092","9,74838311"
"1,296067667","-3,357518005","-0,03682342529","9,196575623","9,790367016"
"1,306020667","-3,433709564","-0,04385879517","9,196425934","9,816645808"
"1,315974667","-3,481160889","-0,003891906738","9,128317566","9,769579206"
"1,325927667","-3,53953949","0,07409591675","9,048832855","9,716748738"
"1,335880667","-3,578308868","0,144150238","9,055419159","9,737848314"
"1,345833667","-3,574716339","0,1267863464","9,116641846","9,793254323"
"1,355786667","-3,519481201","0,09939331055","9,191186829","9,84248659"
"1,365740667","-3,460653534","0,04685256958","9,213789825","9,842369684"
"1,375693667","-3,515289917","-0,01122665405","9,198222198","9,84706458"
"1,385646667","-3,585793304","-0,0672102356","9,135203247","9,813988445"
"1,395599667","-3,586092682","-0,06526428223","9,084458771","9,76686804"
"1,405553667","-3,475472717","-0,03248245239","9,071884918","9,714888661"
"1,415506667","-3,434607697","-0,02664459229","9,074130249","9,702426487"
"1,425459667","-3,480113068","-0,07484436035","9,099427643","9,742503378"
"1,435412667","-3,542233887","-0,1082249451","9,100774841","9,766434163"
"1,445365667","-3,615281982","-0,08217910767","9,100026398","9,792216177"
"1,455319667","-3,557651825","-0,03891906738","9,112749939","9,782668994"
"1,465272667","-3,533402252","-0,01212478638","9,097481689","9,759572305"
"1,475225667","-3,603157196","-0,03697311401","9,115594025","9,801946909"
"1,485178667","-3,661835175","-0,09565109253","9,151818695","9,857685905"
"1,495132667","-3,671864319","-0,1187031555","9,154962158","9,864583627"
"1,505085667","-3,663332062","-0,09145980835","9,156009979","9,862093359"
"1,515038667","-3,649261322","-0,03637435913","9,152118073","9,852902948"
"1,524991667","-3,618126068","-0,01826202393","9,156908112","9,845818194"
"1,534944667","-3,623365173","-0,0592767334","9,154213715","9,845400837"
"1,544898667","-3,600911865","-0,1088237","9,13954422","9,823933907"
"1,554851667","-3,563339996","-0,1445993042","9,134155426","9,805666537"
"1,564804667","-3,539090424","-0,1255888367","9,137897644","9,800107496"
"1,574757667","-3,487597504","-0,07469467163","9,141340485","9,784325296"
"1,584710667","-3,417393494","-0,007484436035","9,146729279","9,764286497"
"1,594664667","-3,367696838","0,02874023438","9,142388306","9,742970385"
"1,604617667","-3,411855011","0,02409988403","9,192084961","9,804884566"
"1,614570708","-3,473676453","0,007185058594","9,193881226","9,828221188"
"1,624523708","-3,507655792","-0,01856140137","9,171876984","9,819741396"
"1,634476708","-3,484603729","-0,04834945679","9,140442352","9,782253688"
"1,644430708","-3,495980072","-0,07409591675","9,144933014","9,790667326"
"1,654383708","-3,543730774","-0,09026229858","9,132957916","9,796790055"
"1,664336708","-3,565585327","-0,1038839722","9,107211456","9,78087374"
"1,674289708","-3,542832642","-0,1426533508","9,134604492","9,798622982"
"1,684243708","-3,454366608","-0,1881587219","9,159901886","9,791417411"
"1,694196708","-3,351530457","-0,1959425354","9,142837372","9,739744611"
"1,704149708","-3,425776062","-0,1483415222","9,109307098","9,73331509"
"1,714102708","-3,511248322","-0,1032852173","9,061406708","9,718468199"
"1,724055708","-3,483855286","-0,0672102356","9,104217682","9,748258535"
"1,734009708","-3,404520264","-0,03622467041","9,167985077","9,779776113"
"1,743962708","-3,335513763","0,01152603149","9,174721069","9,762238043"
"1,753915708","-3,364253998","0,07454498291","9,123527527","9,724326015"
"1,763868708","-3,385509796","0,06316864014","9,080716553","9,691495239"
"1,773821708","-3,419938202",0,"9,139843597","9,758725239"
"1,783775708","-3,471580811","-0,02859054565","9,173074493","9,808057219"
"1,793728708","-3,509601746","0,02335144043","9,131610718","9,782850505"
"1,803681708","-3,494932251","0,08053253174","9,103768616","9,751904426"
"1,813634708","-3,441643066","0,1044827271","9,126371613","9,754305841"
"1,823588708","-3,393592987","0,06331832886","9,197024689","9,803353798"
"1,833541708","-3,469485168","-0,03293151855","9,172775116","9,807049258"
"1,843494708","-3,570225677","-0,07798782349","9,138047333","9,81103983"
"1,853447708","-3,609144745","-0,0556842041","9,162596283","9,847953958"
"1,863400708","-3,527714081","0,007185058594","9,22726181","9,878622312"
"1,873354708","-3,438948669","0,07394622803","9,218579865","9,839413129"
"1,883307708","-3,423830109","0,07679031372","9,184899902","9,802596369"
"1,893260708","-3,43415863","0,08681945801","9,124425659","9,74967316"
"1,903213708","-3,454366608","0,05553451538","9,141190796","9,772261863"
"1,913166708","-3,462599487","-0,005089416504","9,17352356","9,805261629"
"1,923120708","-3,491639099","-0,06227050781","9,153914337","9,797426647"
"1,933073708","-3,501368866","-0,05792953491","9,119336243","9,768583995"
"1,943026708","-3,462150421","-0,02799179077","9,132059784","9,766359863"
"1,952979708","-3,343297577","0,003293151855","9,167685699","9,758284205"
"1,962933708","-3,265908508","0,04535568237","9,155411224","9,72058487"
"1,972886708","-3,297193451","0,06197113037","9,128167877","9,705605281"
"1,982839708","-3,365900574","0,02409988403","9,12083313","9,72211214"
"1,992792708","-3,356769562","-0,01631607056","9,118887177","9,7171123"
"2,002745708","-3,365601196","-0,04430786133","9,122180328","9,723343486"
"2,012699708","-3,369193726","-0,03652404785","9,094487915","9,698582928"
"2,022652708","-3,362308044","0,01586700439","9,117240601","9,717481326"
"2,032605708","-3,352129211","0,06990463257","9,146878967","9,742025033"
"2,042558708","-3,317850494","0,07484436035","9,160949707","9,743548282"
"2,052511708","-3,322041779","0,03847000122","9,168883209","9,752223378"
"2,062465708","-3,368594971","0,00628692627","9,1570578","9,75700667"
"2,072418708","-3,40960968","-0,02125579834","9,152267761","9,766775064"
"2,082371708","-3,463796997","-0,0426612854","9,126820679","9,762098408"
"2,092324708","-3,496129761","-0,08367599487","9,129814453","9,776678215"
"2,102277708","-3,46574295","-0,1020877075","9,130562897","9,766727953"
"2,112231708","-3,431314545","-0,06885681152","9,140891418","9,763941657"
"2,122184708","-3,457061005","-0,02035766602","9,166188812","9,796463779"
"2,132137708","-3,494034119","0,002844085693","9,14193924","9,786896115"
"2,142090708","-3,493285675","-0,01781295776","9,129814453","9,77531964"
"2,152044708","-3,51379303","-0,04790039063","9,125623169","9,778856484"
"2,161997708","-3,548520813","-0,03367996216","9,12203064","9,787981267"
"2,171950708","-3,547922058","0,0209564209","9,119186554","9,785078104"
"2,181903708","-3,507655792","0,06511459351","9,141639862","9,791704062"
"2,191856708","-3,462599487","0,09280700684","9,172176361","9,804439176"
"2,201810708","-3,479364624","0,05149291992","9,193432159","9,829945299"
"2,211763708","-3,486100616","-0,03068618774","9,179660797","9,819369201"
"2,221716708","-3,524570618","-0,06227050781","9,177415466","9,83114593"
"2,231669708","-3,553310852","-0,02065704346","9,168134766","9,832656803"
"2,241622708","-3,545676727","0,03353027344","9,164542236","9,826585477"
"2,251576708","-3,528612213","0,06167175293","9,149872742","9,806889351"
"2,261529708","-3,513942719","0,0426612854","9,14657959","9,798445367"
"2,271482708","-3,491040344","0,004939727783","9,169182587","9,811284136"
"2,281435708","-3,494483185","-0,008981323242","9,176667023","9,81950666"
"2,291388708","-3,480562134","-0,016615448","9,145980835","9,785885462"
"2,301342708","-3,454366608","-0,03592529297","9,103918304","9,737313171"
"2,311295708","-3,439098358","-0,02275268555","9,113947449","9,741250089"
"2,321248708","-3,477418671","0,03742218018","9,161698151","9,799518051"
"2,331201708","-3,500470734","0,06780899048","9,182205505","9,827043877"
"2,341155708","-3,506458282","0,06242019653","9,184450836","9,831240162"
"2,351108708","-3,509152679","0,04999603271","9,160350952","9,809621894"
"2,361061708","-3,513942719","0,0549357605","9,173373871","9,823522766"
"2,371014708","-3,485801239","0,1080752563","9,154213715","9,796025688"
"2,380967708","-3,420836334","0,196690979","9,154064026","9,774338686"
"2,390921708","-3,43999649","0,2600093079","9,157656555","9,78590079"
"2,400874708","-3,499572601","0,2237846375","9,160051575","9,80834506"
"2,410827708","-3,539389801","0,109871521","9,13131134","9,793885782"
"2,420780708","-3,548221436","-0,01017883301","9,111851807","9,778334332"
"2,430733708","-3,524570618","-0,06376739502","9,108109589","9,766489881"
"2,440687708","-3,540587311","-0,08637039185","9,14418457","9,806086365"
"2,450640708","-3,587888947","-0,08696914673","9,178313599","9,855046993"
"2,460593708","-3,649261322","-0,0419128418","9,184600525","9,883104355"
"2,470546708","-3,735631714","0,002694396973","9,173373871","9,90483416"
"2,480499708","-3,737577667","0,03592529297","9,138646088","9,873481137"
"2,490453708","-3,652704163","0,0628692627","9,132209473","9,83582483"
"2,500406708","-3,540437622","0,1158590698","9,116791534","9,780798013"
"2,510359708","-3,49852478","0,1571731567","9,149573364","9,796890925"
"2,520312708","-3,474574585","0,1236428833","9,16648819","9,803696336"
"2,530266708","-3,498973846","0,076640625","9,176517334","9,821260721"
"2,540219708","-3,534300385","0,04221221924","9,177116089","9,834252426"
"2,550172708","-3,518134003","0,02140548706","9,190438385","9,840827341"
"2,560125708","-3,491339722","0,01422042847","9,152118073","9,795454072"
"2,570078708","-3,468437347","-0,005388793945","9,113049316","9,750782251"
"2,580032708","-3,464844818","-0,02185455322","9,084159393","9,722529461"
"2,589985708","-3,443888397","-0,04101470947","9,091344452","9,721861624"
"2,599938708","-3,41904007","-0,04685256958","9,156608734","9,774227011"
"2,609891708","-3,383114777","-0,03787124634","9,17816391","9,781901276"
"2,619844208","-3,353626099","-0,0296383667","9,138945465","9,734886268"
"2,629798208","-3,354075165","-0,03083587646","9,110803986","9,708631228"
"2,639751208","-3,335663452","-0,04206253052","9,130263519","9,720603472"
"2,649704208","-3,320395203","-0,05703140259","9,135502625","9,72037474"
"2,659657208","-3,327280884","-0,08981323242","9,113648071","9,702445345"
"2,669610208","-3,319197693","-0,1243913269","9,08685379","9,674888027"
"2,679564208","-3,310066681","-0,1178050232","9,102870483","9,686726511"
"2,689517208","-3,319048004","-0,07544311523","9,16529068","9,748042089"
"2,699470208","-3,305276642","-0,0252973938","9,189689941","9,766058307"
"2,709423208","-3,287313995","-0,004939727783","9,156908112","9,729101905"
"2,719377208","-3,27863205","-0,03562591553","9,128167877","9,699182755"
"2,729330208","-3,295995941","-0,07963439941","9,123677216","9,701103897"
"2,739283208","-3,33356781","-0,09819580078","9,118288422","9,709042203"
"2,749236208","-3,37338501","-0,0809815979","9,127718811","9,731471376"
"2,759189208","-3,419788513","-0,05254074097","9,1477771","9,766244922"
"2,769143208","-3,412154388","-0,0383203125","9,178014221","9,791844109"
"2,779096208","-3,409160614","-0,05882766724","9,179062042","9,791885251"
"2,789049208","-3,446582794","-0,09654922485","9,159303131","9,786781318"
"2,799002208","-3,466491394","-0,1043330383","9,129964142","9,766457556"
"2,808955208","-3,486549683","-0,09849517822","9,119485931","9,763746906"
"2,818909208","-3,522774353","-0,1086740112","9,125772858","9,782713296"
"2,828862208","-3,506158905","-0,09999206543","9,142388306","9,792160773"
"2,838815208","-3,526965637","-0,05718109131","9,154213715","9,810320332"
"2,848768208","-3,521576843","-0,02918930054","9,167685699","9,820835838"
"2,858721208","-3,530558167","-0,003891906738","9,113348694","9,773330063"
"2,868675208","-3,525019684","0,0303868103","9,096583557","9,755742901"
"2,878628208","-3,562741241","0,0549357605","9,093140717","9,766337655"
"2,888581208","-3,588188324","0,01751358032","9,123826904","9,804061381"
"2,898534208","-3,57576416","-0,01945953369","9,16409317","9,837025548"
"2,908487208","-3,576213226","-0,02993774414","9,161249084","9,834565679"
"2,918441208","-3,578608246","-0,02350112915","9,150321808","9,825241904"
"2,928394208","-3,570075989","0,01392105103","9,142687683","9,815007612"
"2,938347208","-3,573518829","0,04041595459","9,142687683","9,816333753"
"2,948300208","-3,545976105","0,008681945801","9,142537994","9,806121705"
"2,958253208","-3,509152679","-0,04819976807","9,153165894","9,802903734"
"2,968207208","-3,534599762","-0,1064286804","9,155411224","9,814595113"
"2,978160208","-3,541036377","-0,1357676697","9,1371492","9,800248313"
"2,988113208","-3,538940735","-0,1065783691","9,160201263","9,820628679"
"2,998066208","-3,531755676","-0,04610412598","9,169631653","9,82637107"
"3,008020208","-3,519181824","-0,01332229614","9,170529785","9,822598166"
"3,017973208","-3,545826416","0,003143463135","9,161249084","9,823511574"
"3,027926208","-3,572620697","-0,002544708252","9,125174103","9,799613642"
"3,037879208","-3,543581085","0,002544708252","9,147328033","9,809718831"
"3,047832208","-3,456162872","0,02484832764","9,144933014","9,776271225"
"3,057786208","-3,388503571","0,04206253052","9,139394531","9,747423152"
"3,067739208","-3,397634583","0,01960922241","9,123078461","9,735238358"
"3,077692208","-3,460354156","0,001945953369","9,112151184","9,747068989"
"3,087645208","-3,500321045","-0,01451980591","9,120982819","9,769584731"
"3,097598208","-3,46933548","-0,005688171387","9,123527527","9,760895223"
"3,107552208","-3,483705597","0,02634521484","9,135951691","9,777653709"
"3,117505208","-3,479364624","0,05164260864","9,142238617","9,78208424"
"3,127458208","-3,400029602","0,08547225952","9,166787567","9,777397461"
"3,137411208","-3,345542908","0,1209484863","9,179660797","9,771052054"
"3,147364208","-3,308120728","0,1164578247","9,174870758","9,753741774"
"3,157318208","-3,319796448","0,1077758789","9,160500641","9,7440975"
"3,167271208","-3,420087891","0,09385482788","9,136550446","9,756144933"
"3,177224208","-3,511996765","0,08756790161","9,116043091","9,769546103"
"3,187177208","-3,568130035","0,1050814819","9,117090912","9,791013265"
"3,197130208","-3,558100891","0,1154100037","9,136251068","9,805329418"
"3,207084208","-3,507057037","0,1378633118","9,179511108","9,827608028"
"3,217037208","-3,536845093","0,14040802","9,210197296","9,866950991"
"3,226990208","-3,619622955","0,08981323242","9,187743988","9,875443096"
"3,236943208","-3,679199066","0,03532653809","9,167236633","9,878055539"
"3,246896208","-3,693269806","0,003742218018","9,146429901","9,863946259"
"3,256850208","-3,653751984","-0,007484436035","9,133257294","9,836988786"
"3,266803208","-3,594924316","0,01721420288","9,144483948","9,82575004"
"3,276756208","-3,568878479","0,04430786133","9,175619202","9,845346338"
"3,286709208","-3,588338013","0,0513432312","9,179960175","9,856494033"
"3,296662208","-3,595523071","0,03188369751","9,1570578","9,837708589"
"3,306616208","-3,558100891","0,01002914429","9,148076477","9,815675512"
"3,316569208","-3,522624664","0,006885681152","9,127718811","9,783873601"
"3,326522208","-3,534150696","0,02649490356","9,09628418","9,758755505"
"3,336475208","-3,537443848","0,05733078003","9,105115814","9,768312535"
"3,346429208","-3,52427124","0,05792953491","9,134604492","9,791059332"
"3,356382208","-3,487447815","-0,01916015625","9,169182587","9,810023888"
"3,366335208","-3,472928009","-0,07140151978","9,180259552","9,815472101"
"3,376288208","-3,530558167","-0,07379653931","9,11260025","9,772910018"
"3,386241208","-3,544778595","-0,04640350342","9,076076202","9,743857953"
"3,396195208","-3,549418945","-0,0130229187","9,079069977","9,748233486"
"3,406148208","-3,590733032","0,02185455322","9,141190796","9,821161362"
"3,416101208","-3,633843384","0,02544708252","9,156309357","9,851064223"
"3,426054208","-3,589236145","-0,0005987548828","9,162296906","9,840238871"
"3,436007208","-3,575315094","-0,02634521484","9,177415466","9,849290672"
"3,445961208","-3,579805756","-0,03592529297","9,164991302","9,839378306"
"3,455914208","-3,579356689","-0,05553451538","9,138646088","9,814771047"
"3,465867208","-3,549119568","-0,05987548828","9,148525543","9,813019637"
"3,475820208","-3,437451782","-0,00628692627","9,192983093","9,814634605"
"3,485773208","-3,379522247","0,06301895142","9,24717041","9,845572741"
"3,495727208","-3,38042038","0,07349716187","9,180109863","9,782998563"
"3,505680208","-3,449875946","0,007035369873","9,110953674","9,742236417"
"3,515633208","-3,484603729","-0,06571334839","9,078321533","9,72433562"
"3,525586208","-3,410058746","-0,09864486694","9,086554413","9,705859187"
"3,535539208","-3,307372284","-0,1013392639","9,095236359","9,678445407"
"3,545493208","-3,280128937","-0,0860710144","9,096433868","9,670148044"
"3,555446208","-3,329825592","-0,08187973022","9,108259277","9,698186935"
"3,565399208","-3,371289368","-0,07424560547","9,142837372","9,744874531"
"3,575352208","-3,35467392","-0,06960525513","9,147328033","9,743320386"
"3,585305208","-3,362308044","-0,06735992432","9,13250885","9,732028085"
"3,595259208","-3,372486877","-0,07948471069","9,108259277","9,712897231"
"3,605212208","-3,393592987","-0,08936416626","9,099577332","9,712196813"
"3,615164792","-3,400179291","-0,05733078003","9,11499527","9,728702113"
"3,625117792","-3,359014893","-0,01137634277","9,144034882","9,741482658"
"3,635070792","-3,354823608","-0,0137713623","9,136101379","9,732593668"
"3,645024792","-3,366050262","-0,03742218018","9,121132507","9,722486976"
"3,654977792","-3,354524231","-0,06571334839","9,106463013","9,704886381"
"3,664930792","-3,335663452","-0,04819976807","9,108708344","9,700388733"
"3,674883792","-3,342998199","0,009280700684","9,136999512","9,72936191"
"3,684836792","-3,348985748","0,05194198608","9,149723053","9,743502217"
"3,694790792","-3,372486877","0,07963439941","9,142088928","9,744629257"
"3,704743792","-3,387306061","0,05957611084","9,108708344","9,718331099"
"3,714696792","-3,362906799","-0,001347198486","9,102720795","9,704054298"
"3,724649792","-3,322041779","-0,05822891235","9,117989044","9,704487436"
"3,734602792","-3,275338898","-0,0773890686","9,094787292","9,666901771"
"3,744556792","-3,213517456","-0,09684860229","9,085955658","9,637980302"
"3,754509792","-3,084785156","-0,1043330383","9,040300598","9,55268652"
"3,764462792","-2,890788574","-0,05583389282","9,039402466","9,490551772"
"3,774415792","-2,702180786","-0,004640350342","9,057814178","9,45229074"
"3,784368792","-2,503244476","-0,006137237549","9,048383789","9,388265003"
"3,794322792","-2,324815521","-0,1037342834","9,018595734","9,314000055"
"3,804275792","-2,182760925","-0,259410553","8,984466705","9,249453015"
"3,814228792","-2,146985321","-0,3659889221","8,982520752","9,242790321"
"3,824181792","-2,131268005","-0,3522175598","8,937464447","9,194815456"
"3,834134792","-1,965113525","-0,2182461548","8,874894562","9,092472493"
"3,844088792","-1,073417816","-0,1835183716","8,769513702","8,836870225"
"3,854041792","-0,5860313416","-0,1128652954","8,850794678","8,870892725"
"3,863994792","0,1683998108","-0,3608995056","9,062005463","9,070752447"
"3,873947792","0,5522016907","-0,3716770935","9,147926788","9,172111812"
"3,883900792","0,2393522644","-0,3058140564","9,216035156","9,224213557"
"3,893854792","0,2453398132","-0,310304718","9,101373596","9,10996608"
"3,903807792","0,1222956848","-0,3559597778","9,106313324","9,114088323"
"3,913760792","-0,02439926147","-0,3210823059","9,079069977","9,084778523"
"3,923713792","-0,1146615601","-0,290994873","9,134155426","9,139508774"
"3,933666792","-0,1149609375","-0,2932402039","9,021140442","9,026637287"
"3,943620792","-0,1869612122","-0,3047662354","9,104517059","9,111534878"
"3,953573792","-0,1549278259","-0,3101550293","9,085356903","9,091969469"
"3,963526792","-0,160765686","-0,2948867798","9,287436676","9,293507617"
"3,973479792","-0,157023468","-0,3005749512","9,312135315","9,318308097"
"3,983432792","-0,08786727905","-0,2764750671","9,315428467","9,319944562"
"3,993386792","-0,1053808594","-0,2877017212","9,296867065","9,301914568"
"4,003339792","-0,03068618774","-0,2730322266","9,330397339","9,334441748"
"4,013292792","-0,008232879639","-0,2959346008","9,413923645","9,418577571"
"4,023245792","0,02484832764","-0,2679428101","9,342821503","9,346695909"
"4,033198792","0,04834945679","-0,2784210205","9,442663879","9,446891397"
"4,043152792","0,05508544922","-0,2764750671","9,537267151","9,541432679"
"4,053105792","0,0672102356","-0,2653981018","9,581125946","9,585036659"
"4,063058792","0,06541397095","-0,26210495","9,708810425","9,712568036"
"4,073011792","0,03502716064","-0,2652484131","9,713001709","9,716685948"
"4,082964792","0,06017486572","-0,2996768188","9,725874939","9,730676777"
"4,092918792","0,03966751099","-0,2769241333","9,741292877","9,745308995"
"4,102871792","0,03278182983","-0,272283783","9,7701828","9,774031157"
"4,112824792","-0,01392105103","-0,2712359619","9,828561401","9,832313154"
"4,122777792","0,0520916748","-0,2730322266","9,912536774","9,9164331"
"4,132730792","0,02230361938","-0,2528242493","10,11880783","10,12199039"
"4,142684792","0,09894424438","-0,2423460388","10,30157776","10,304903"
"4,152637792","0,1294807434","-0,2433938599","10,5398822","10,54348722"
"4,162590792","0,1603166199","-0,2442919922","10,80333435","10,80728519"
"4,172543792","0,1335223389","-0,2216889954","10,98430801","10,98735622"
"4,182497792","0,1824705505","-0,255668335","11,16348541","11,16790349"
"4,192450792","0,2104623413","-0,2887495422","11,16258728","11,1683045"
"4,202403792","0,1526824951","-0,2580633545","11,15076187","11,15479264"
"4,212356792","0,265847168","-0,2052232361","11,2339888","11,23900777"
"4,222309792","0,2198927307","-0,2040257263","11,296409","11,30039095"
"4,232263792","0,1951940918","-0,1722917175","11,31661697","11,31961152"
"4,242216792","0,1938468933","-0,1592687988","11,40238861","11,40514836"
"4,252169792","0,1910028076","-0,146844635","11,44639709","11,44893235"
"4,262122792","0,1091230774","-0,157023468","11,488759","11,4903502"
"4,272075792","0,04655319214","-0,137713623","11,49130371","11,49222316"
"4,282029792","0,02559677124","-0,1231938171","11,43053009","11,4312226"
"4,291982792","0,05343887329","-0,1207987976","11,36436768","11,36513532"
"4,301935792","0,107177124","-0,1002914429","11,40628052","11,40722493"
"4,311888792","0,145796814","-0,09071136475","11,45971939","11,46100579"
"4,321841792","0,2010319519","-0,06092330933","11,50582352","11,50774089"
"4,331795792","0,4023632813","-0,05478607178","11,53665939","11,54380387"
"4,341748792","0,5301974487","-0,06017486572","11,59982803","11,61209459"
"4,351701792","0,6352789307","-0,04685256958","11,66853516","11,68590977"
"4,361654792","0,7234455872","-0,02499801636","11,57707535","11,59968413"
"4,371607792","0,8484356689","0,0375718689","11,53770721","11,56892141"
"4,381561792","0,8577163696","0,08187973022","11,4582225","11,49057199"
"4,391514792","0,9123527527","0,1172062683","11,43756546","11,4744947"
"4,401467792","0,9340576172","0,1531315613","11,51914581","11,55796838"
"4,411420792","0,8675958252","0,1895059204","11,61165344","11,6455627"
"4,421373792","0,7688012695","0,2023791504","11,78439423","11,81117945"
"4,431327792","0,7038363647","0,1983375549","11,91911407","11,94152435"
"4,441280792","0,6262976074","0,1924996948","12,01371735","12,03157136"
"4,451233792","0,4683760071","0,1715432739","12,03602097","12,04635231"
"4,461186792","0,2715353394","0,1983375549","11,925401","11,93014075"
"4,471139792","0,2040257263","0,1710942078","11,84217407","11,84516722"
"4,481093792","0,09175918579","0,1573228455","11,7117952","11,71321121"
"4,491046792","0,009580078125","0,143102417","11,58201508","11,58290306"
"4,500999792","-0,02709365845","0,1606159973","11,57303375","11,57417996"
"4,510952792","-0,06930587769","0,1700463867","11,50776947","11,50923443"
"4,520905792","-0,0252973938","0,1806742859","11,51734955","11,51879437"
"4,530858792","0,003742218018","0,2300715637","11,4901062","11,49240999"
"4,540812792","0,07289840698","0,2683918762","11,40717865","11,41056848"
"4,550765792","0,1234931946","0,2865042114","11,3785881","11,38286442"
"4,560718792","0,1413061523","0,2891986084","11,26063339","11,26523269"
"4,570671792","0,1603166199","0,2887495422","11,21692429","11,22178543"
"4,580624792","0,1990859985","0,3016227722","11,22560623","11,2314223"
"4,590578792","0,2372566223","0,3101550293","11,23219254","11,23897842"
"4,600531792","0,274379425","0,3079096985","11,28368546","11,29122004"
"4,610484792","0,2585124207","0,3293151855","11,28218857","11,28995377"
"4,620438167","0,2800675964","0,3457809448","11,25823837","11,2670286"
"4,630392167","0,3068618774","0,3748205566","11,21557709","11,22603332"
"4,640345167","0,3040177917","0,3841012573","11,11199249","11,12278462"
"4,650298167","0,2986289978","0,3826043701","11,0057135","11,01641026"
"4,660251167","0,3005749512","0,4002676392","10,9778714","10,9892775"
"4,670204167","0,3478765869","0,4041595459","10,90931396","10,92233923"
"4,680158167","0,3652404785","0,4040098572","10,88641159","10,90002669"
"4,690111167","0,3309617615","0,4363426208","10,83117645","10,84501332"
"4,700064167","0,373024292","0,4629872131","10,74256073","10,75900159"
"4,710017167","0,456101532","0,4879852295","10,68942123","10,71027005"
"4,719970167","0,4833448792","0,4987628174","10,50380722","10,52674464"
"4,729923167","0,4891827393","0,4803511047","10,37732025","10,39994291"
"4,739877167","0,5004093933","0,4751119995","10,18976028","10,21309726"
"4,749830167","0,5472619629","0,4707710266","10,05848328","10,08435456"
"4,759783167","0,552052002","0,4731660461","9,912536774","9,939166605"
"4,769736167","0,5113366699","0,4650828552","9,790390778","9,814760253"
"4,779689167","0,4763095093","0,4656816101","9,654922485","9,677874679"
"4,789643167","0,4761598206","0,4772076416","9,59819046","9,621835346"
"4,799596167","0,4336482239","0,5120851135","9,533973999","9,557559425"
"4,809549167","0,3781137085","0,5177732849","9,468410339","9,490092387"
"4,819502167","0,3625460815","0,5119354248","9,355395355","9,376403351"
"4,829455167","0,3727249146","0,520916748","9,279203796","9,301284923"
"4,839409167","0,3656895447","0,5629792786","9,238787842","9,26314608"
"4,849362167","0,3838018799","0,5656736755","9,16289566","9,188359346"
"4,859315167","0,4354444885","0,5718109131","9,128467255","9,156718519"
"4,869268167","0,4679269409","0,5773493958","9,094188538","9,124502896"
"4,879221167","0,4983137512","0,5593867493","9,110354919","9,141104796"
"4,889175167","0,5731581116","0,5483097839","9,117090912","9,151529956"
"4,899128167","0,6424639893","0,528999939","9,082812195","9,120859514"
"4,909081167","0,6625222778","0,5164260864","9,06110733","9,099961413"
"4,919034167","0,6801855469","0,5191204834","8,957223358","8,997999152"
"4,928987167","0,7349716187","0,5150788879","8,97578476","9,020543309"
"4,938941167","0,7340734863","0,5141807556","8,920848999","8,965756666"
"4,948894167","0,6821315002","0,5078938293","8,852590942","8,893347284"
"4,958847167","0,7231462097","0,5180726624","8,846004639","8,890620776"
"4,968800167","0,7197033691","0,4899311829","8,834029541","8,876828456"
"4,978753167","0,6144721985","0,4881349182","8,874894562","8,90952329"
"4,988707167","0,5399272156","0,4896318054","8,893306274","8,923124856"
"4,998660167","0,5457650757","0,4781057739","8,942254486","8,971641987"
"5,008613167","0,5155279541","0,4593946838","8,995244293","9,021708953"
"5,018566167","0,3760180664","0,4803511047","8,972790985","8,993503479"
"5,028519167","0,2986289978","0,4951702881","9,002728729","9,021280256"
"5,038473167","0,2850073242","0,4773573303","8,935668182","8,952947284"
"5,048426167","0,2429447937","0,4710704041","8,936266937","8,951971642"
"5,058379167","0,1450483704","0,4740641785","8,858129425","8,871991478"
"5,068332167","0,1207987976","0,4501139832","8,888815613","8,901024545"
"5,078285167","0,03173400879","0,4471202087","8,833879852","8,845244868"
"5,088239167","0,02814147949","0,4544549561","8,806337128","8,818100411"
"5,098192167","0,07379653931","0,4546046448","8,869805145","8,881754029"
"5,108145167","0,04535568237","0,4749623108","8,905431061","8,918203222"
"5,118098167","0,08158035278","0,482895813","8,938063202","8,951470132"
"5,128051167","0,1255888367","0,4731660461","8,973838806","8,987182071"
"5,138005167","0,1345701599","0,48559021","8,998387756","9,012485184"
"5,147958167","0,2291734314","0,4876858521","9,09044632","9,106402816"
"5,157911167","0,2624043274","0,4858895874","9,135652313","9,152326912"
"5,167864167","0,3115022278","0,4805007935","9,203161926","9,220960042"
"5,177817167","0,3680845642","0,4652325439","9,235943756","9,254976209"
"5,187770167","0,3999682617","0,4614903259","9,34431839","9,364252992"
"5,197724167","0,4156855774","0,4511618042","9,431586914","9,451516978"
"5,207677167","0,4564009094","0,4333488464","9,483977966","9,504837246"
"5,217630167","0,4595443726","0,4194277954","9,499844971","9,520197223"
"5,227583167","0,4646337891","0,3969744873","9,558223572","9,577740399"
"5,237536167","0,4951702881","0,3984713745","9,575737152","9,596807545"
"5,247490167","0,5026547241","0,4123924255","9,626631317","9,648562577"
"5,257443167","0,4785548401","0,406255188","9,645192719","9,665598822"
"5,267396167","0,5150788879","0,4044589233","9,685159607","9,707276132"
"5,277349167","0,5608836365","0,417481842","9,772128754","9,797110897"
"5,287302167","0,5578898621","0,4192781067","9,857451324","9,882124359"
"5,297256167","0,5752537537","0,413739624","9,898765411","9,92409462"
"5,307209167","0,6105802917","0,3974235535","9,94337265","9,970025749"
"5,317162167","0,6469546509","0,3935316467","9,997110901","10,02574904"
"5,327115167","0,662971344","0,3844006348","10,09470795","10,1237554"
"5,337068167","0,6069877625","0,3662882996","10,11850845","10,14331379"
"5,347022167","0,5950126648","0,3433859253","10,17209702","10,19526908"
"5,356975167","0,6249504089","0,3234773254","10,26640091","10,29049018"
"5,366928167","0,5746549988","0,303868103","10,36938675","10,38974233"
"5,376881167","0,513432312","0,2784210205","10,46937881","10,485658"
"5,386834167","0,5034031677","0,2444416809","10,54946228","10,56429462"
"5,396788167","0,4899311829","0,2348616028","10,65334625","10,66719171"
"5,406741167","0,4185296631","0,2173480225","10,76770844","10,778031"
"5,416694167","0,4221221924","0,1907034302","10,89853638","10,90837523"
"5,426647167","0,4144880676","0,1794767761","11,00212097","11,01138857"
"5,436600167","0,380508728","0,1718426514","11,06618774","11,07406104"
"5,446553167","0,40251297","0,1728904724","11,17785553","11,18643652"
"5,456507167","0,3867956543","0,1769320679","11,2857811","11,29379346"
"5,466460167","0,3758683777","0,1664538574","11,37933655","11,38675916"
"5,476413167","0,3743714905","0,1523831177","11,45672562","11,46385347"
"5,486366167","0,3881428528","0,14040802","11,52363647","11,53102627"
"5,496319167","0,422870636","0,1351689148","11,57273438","11,58124653"
"5,506273167","0,4912783813","0,146844635","11,60940811","11,62072607"
"5,516226167","0,499511261","0,12753479","11,60132492","11,61277385"
"5,526179167","0,5158273315","0,1008901978","11,57258469","11,58451436"
"5,536132167","0,5336402893","0,1032852173","11,60117523","11,61390144"
"5,546085167","0,5077441406","0,09654922485","11,62437698","11,63586121"
"5,556039167","0,4647834778","0,1187031555","11,62826889","11,63815928"
"5,565992167","0,4263134766","0,1064286804","11,6758699","11,6841349"
"5,575945167","0,3736230469","0,09445358276","11,687845","11,6941967"
"5,585898167","0,3164419556","0,07813751221","11,70820267","11,71273882"
"5,595851167","0,2332150269","0,07499404907","11,7249678","11,72752674"
"5,605805167","0,1683998108","0,07214996338","11,68065994","11,68209659"
"5,615758292","0,1008901978","0,05164260864","11,64742905","11,64798048"
"5,625711292","0,07080276489","0,03278182983","11,65042282","11,65068408"
"5,635664292","0,04999603271","0,0005987548828","11,64638123","11,64648855"
"5,645617292","0,01781295776","-0,02829116821","11,63246017","11,63250822"
"5,655571292","0,02574645996","-0,06242019653","11,64997375","11,65016943"
"5,665524292","0,05179229736","-0,08921447754","11,65940414","11,65986049"
"5,675477292","0,09654922485","-0,09684860229","11,68994064","11,69074051"
"5,685430292","0,1540296936","-0,1017883301","11,70685547","11,70831119"
"5,695383292","0,205821991","-0,09984237671","11,68065994","11,68289981"
"5,705337292","0,2724334717","-0,09969268799","11,66105072","11,6646587"
"5,715290292","0,337098999","-0,1097218323","11,66164948","11,6670366"
"5,725243292","0,3975732422","-0,1224453735","11,6228801","11,6303224"
"5,735196292","0,4203259277","-0,1444496155","11,58770325","11,59622379"
"5,745149292","0,425565033","-0,155975647","11,5392041","11,54810224"
"5,755102292","0,4767585754","-0,1797761536","11,51690048","11,52816616"
"5,765056292","0,4784051514","-0,1954934692","11,44969025","11,46134791"
"5,775009292","0,4517605591","-0,2183958435","11,36451736","11,37558962"
"5,784962292","0,4593946838","-0,2354603577","11,26707001","11,27888964"
"5,794915292","0,4584965515","-0,2571652222","11,19671631","11,20905032"
"5,804868292","0,5125341797","-0,2734812927","11,11827942","11,13344603"
"5,814822292","0,5150788879","-0,2787203979","11,06124802","11,07674135"
"5,824775292","0,4661306763","-0,2900967407","10,98026642","10,99398402"
"5,834728292","0,4890330505","-0,3037184143","10,94254486","10,95767705"
"5,844681292","0,4890330505","-0,3219804382","10,9167984","10,93248883"
"5,854634292","0,4833448792","-0,3549119568","10,91305618","10,92951875"
"5,864588292","0,4152365112","-0,3478765869","10,85078568","10,86429884"
"5,874541292","0,4230203247","-0,3436853027","10,80857346","10,82230687"
"5,884494292","0,4291575623","-0,3447331238","10,7681575","10,78221838"
"5,894447292","0,3849993896","-0,3305126953","10,72504715","10,73704333"
"5,904400292","0,3309617615","-0,3201841736","10,65259781","10,6625463"
"5,914354292","0,3073109436","-0,3183879089","10,58538757","10,59463265"
"5,924307292","0,2784210205","-0,3071612549","10,52431458","10,53247661"
"5,934260292","0,2644999695","-0,3040177917","10,45321243","10,46097688"
"5,944213292","0,2251318359","-0,3141966248","10,39603134","10,40321448"
"5,954166292","0,16615448","-0,3013233948","10,31504974","10,32078749"
"5,964119292","0,1456471252","-0,3088078308","10,24289978","10,24858875"
"5,974073292","0,112565918","-0,3141966248","10,13063324","10,13612946"
"5,984026292","0,120050354","-0,3144960022","10,06057892","10,06620922"
"5,993979292","0,1242416382","-0,3324586487","9,943971405","9,950303113"
"6,003932292","0,1175056458","-0,3326083374","9,843530273","9,849848939"
"6,013885292","0,1005908203","-0,3302133179","9,769284668","9,775381439"
"6,023839292","0,1106199646","-0,3197351074","9,64848587","9,654415928"
"6,033792292","0,1574725342","-0,2978805542","9,554481354","9,560420721"
"6,043745292","0,1571731567","-0,2853067017","9,45314209","9,458752491"
"6,053698292","0,152233429","-0,2707868958","9,361981659","9,367134094"
"6,063651292","0,1670526123","-0,2628533936","9,279054108","9,28427938"
"6,073605292","0,139360199","-0,2606080627","9,183552704","9,188306595"
"6,083558292","0,176333313","-0,2787203979","9,094188538","9,100167232"
"6,093511292","0,1887574768","-0,2856060791","9,033714294","9,04019879"
"6,103464292","0,1658551025","-0,2891986084","8,976233826","8,982422693"
"6,113417292","0,1667532349","-0,2977308655","8,954379272","8,960879335"
"6,123371292","0,1722917175","-0,2984793091","8,915310516","8,921969286"
"6,133324292","0,169896698","-0,320483551","8,891210632","8,898606694"
"6,143277292","0,1592687988","-0,3414399719","8,855584717","8,863595686"
"6,153230292","0,1140628052","-0,3659889221","8,832233276","8,840548787"
"6,163183292","0,0896635437","-0,382155304","8,831484833","8,84020399"
"6,173137292","0,07828720093","-0,3815565491","8,82714386","8,835733303"
"6,183090292","0,0462538147","-0,3781137085","8,837173004","8,845379364"
"6,193043292","0,03053649902","-0,3769161987","8,843908997","8,851989869"
"6,202996292","0,01422042847","-0,3682342529","8,8412146","8,848891133"
"6,212949292","0,0173638916","-0,3632945251","8,862620087","8,870080001"
"6,222902292","0,02874023438","-0,3597019958","8,880732422","8,888060524"
"6,232856292","0,02784210205","-0,3529660034","8,886719971","8,893770405"
"6,242809292","0,03996688843","-0,3595523071","8,888965302","8,896323923"
"6,252762292","0,0860710144","-0,3516188049","8,918903046","8,926246442"
"6,262715292","0,09819580078","-0,3442840576","8,918304291","8,925487401"
"6,272668292","0,1360670471","-0,338745575","8,941955109","8,949403554"
"6,282622292","0,1631607056","-0,3290158081","8,95587616","8,963402847"
"6,292575292","0,2044747925","-0,3297642517","8,983269196","8,991645002"
"6,302528292","0,2393522644","-0,3299139404","8,992549896","9,001782399"
"6,312481292","0,2601589966","-0,33230896","9,007967834","9,017848771"
"6,322434292","0,2881507874","-0,322130127","9,044192505","9,054513613"
"6,332387292","0,3146456909","-0,3094065857","9,048832855","9,059586657"
"6,342341292","0,3505709839","-0,3034190369","9,067244568","9,079090658"
"6,352294292","0,3511697388","-0,287252655","9,082063751","9,093388601"
"6,362247292","0,3614982605","-0,2712359619","9,120683441","9,131873651"
"6,372200292","0,3939807129","-0,2716850281","9,142388306","9,154905652"
"6,382153292","0,3902384949","-0,256716156","9,177864532","9,189743557"
"6,392107292","0,3894900513","-0,2460882568","9,239536285","9,251015766"
"6,402060292","0,3885919189","-0,2318678284","9,283095703","9,294118151"
"6,412013292","0,3984713745","-0,227227478","9,354646912","9,365886536"
"6,421966292","0,3852987671","-0,2177970886","9,426497498","9,436882207"
"6,431919292","0,3758683777","-0,2098635864","9,503287811","9,513033112"
"6,441873292","0,3573069763","-0,1990859985","9,567204895","9,575944497"
"6,451826292","0,3460803223","-0,1948947144","9,662107544","9,670267718"
"6,461779292","0,343535614","-0,1910028076","9,723779297","9,731720434"
"6,471732292","0,3192860413","-0,1889071655","9,804760895","9,811776888"
"6,481685292","0,2832110596","-0,1935475159","9,87556366","9,881519455"
"6,491638292","0,2571652222","-0,1911524963","9,938881989","9,944045877"
"6,501592292","0,2137554932","-0,1775308228","9,999954987","10,00381469"
"6,511545292","0,1992356873","-0,1782792664","10,05459137","10,05814525"
"6,521498292","0,1740879822","-0,1613644409","10,12389725","10,12667964"
"6,531451292","0,1710942078","-0,1574725342","10,17449203","10,17714886"
"6,541404292","0,1523831177","-0,1481918335","10,23182281","10,23403046"
"6,551358292","0,1525328064","-0,1266366577","10,30561935","10,30752606"
"6,561311292","0,1550775146","-0,1083746338","10,35067566","10,35240459"
"6,571264292","0,1478924561","-0,08831634521","10,41773621","10,41916022"
"6,581217292","0,1493893433","-0,0802331543","10,49662216","10,49799178"
"6,591170292","0,146844635","-0,07349716187","10,55664734","10,55792443"
"6,601124292","0,1363664246","-0,06152206421","10,63433578","10,63538802"
"6,611077292","0,1451980591","-0,07020401001","10,7163652","10,71757875"
"6,621030792","0,1405577087","-0,0817300415","10,80108902","10,80231273"
"6,630983792","0,157023468","-0,07708969116","10,87443649","10,87584333"
"6,640936792","0,196690979","-0,08846603394","10,95646591","10,95858836"
"6,650889792","0,2212399292","-0,08666976929","11,01664078","11,01920291"
"6,660843792","0,228874054","-0,09145980835","11,10465775","11,10739267"
"6,670796792","0,2459385681","-0,09580078125","11,15480347","11,15792561"
"6,680749792","0,2504292297","-0,09235794067","11,24686203","11,2500289"
"6,690702792","0,2562670898","-0,09415420532","11,32889145","11,33218069"
"6,700655792","0,2225871277","-0,06975494385","11,4011911","11,40357704"
"6,710609792","0,2636018372","-0,03577560425","11,49639313","11,49947046"
"6,720562792","0,2636018372","0,005089416504","11,55881332","11,56181981"
"6,730515792","0,2496807861","0,03607498169","11,6174913","11,62023003"
"6,740468792","0,2721340942","0,06496490479","11,66778671","11,67114065"
"6,750421792","0,2661465454","0,08038284302","11,68874313","11,69204907"
"6,760375792","0,2519261169","0,1037342834","11,72047714","11,72364329"
"6,770328792","0,264200592","0,1285826111","11,74966644","11,75333982"
"6,780281792","0,2644999695","0,1474433899","11,74577454","11,74967741"
"6,790234792","0,2818638611","0,1643582153","11,73589508","11,7404299"
"6,800187792","0,2977308655","0,1706451416","11,74921738","11,75422785"
"6,810140792","0,2820135498","0,1842668152","11,74517578","11,75000596"
"6,820094792","0,3147953796","0,1895059204","11,75490555","11,7606468"
"6,830047792","0,3559597778","0,2168989563","11,75445648","11,76184508"
"6,840000792","0,3784130859","0,2335144043","11,71868088","11,72711418"
"6,849953792","0,4011657715","0,2459385681","11,70446045","11,71391541"
"6,859906792","0,4222718811","0,255668335","11,68979095","11,70020908"
"6,869860792","0,4384382629","0,2649490356","11,64757874","11,65883856"
"6,879813792","0,4614903259","0,2752775574","11,61659317","11,62901492"
"6,889766792","0,4845423889","0,2938389587","11,60716278","11,6209875"
"6,899719792","0,4951702881","0,2960842896","11,58156601","11,59592733"
"6,909672792","0,5146298218","0,3067121887","11,5484848","11,5640139"
"6,919625792","0,5243595886","0,3224295044","11,52947433","11,54589504"
"6,929579792","0,5487588501","0,33230896","11,52677994","11,54461871"
"6,939532792","0,5435197449","0,3463796997","11,51390671","11,53193133"
"6,949485792","0,5212161255","0,3694317627","11,4649585","11,48274442"
"6,959438792","0,5063969421","0,3829037476","11,41885437","11,43648933"
"6,969391792","0,4846920776","0,4005670166","11,39086258","11,40820453"
"6,979345792","0,4349954224","0,4061054993","11,35987701","11,37545377"
"6,989298792","0,3956272888","0,4213737488","11,30613876","11,32090326"
"6,999251792","0,3522175598","0,4315525818","11,25973526","11,2735058"
"7,009204792","0,3159928894","0,4414320374","11,20719452","11,22033523"
"7,019157792","0,3026705933","0,4436773682","11,14672028","11,15965197"
"7,029111792","0,2833607483","0,4414320374","11,10061615","11,11300295"
"7,039064792","0,2375559998","0,4281097412","11,02756805","11,03843141"
"7,049017792","0,2109114075","0,4210743713","10,9394014","10,94953379"
"7,058970792","0,1935475159","0,3912863159","10,88281906","10,89157088"
"7,068923792","0,1625619507","0,3827540588","10,79704742","10,80505253"
"7,078876792","0,1489402771","0,3688330078","10,71426956","10,72165068"
"7,088830792","0,1215472412","0,3643423462","10,62266006","10,6296014"
"7,098783792","0,1255888367","0,3697311401","10,5624852","10,56970043"
"7,108736792","0,1028361511","0,3743714905","10,51293823","10,52010454"
"7,118689792","0,1151106262","0,3745211792","10,44991928","10,45726205"
"7,128642792","0,1362167358","0,3983216858","10,38944504","10,39797016"
"7,138596792","0,1549278259","0,417481842","10,33660492","10,34619229"
"7,148549792","0,1981878662","0,4318519592","10,27882507","10,28980172"
"7,158502792","0,2097138977","0,4490661621","10,21670425","10,2287187"
"7,168455792","0,2433938599","0,4655319214","10,13706985","10,15067218"
"7,178408792","0,2793191528","0,4686753845","10,07000931","10,08477879"
"7,188361792","0,3007246399","0,4692741394","10,00414627","10,01966048"
"7,198315792","0,3134481812","0,4704716492","9,943971405","9,960028144"
"7,208268792","0,3438349915","0,4622387695","9,871821442","9,888616979"
"7,218221792","0,3534150696","0,4537065125","9,796677704","9,813544"
"7,228174792","0,3613485718","0,43409729","9,733359375","9,749733226"
"7,238127792","0,3617976379","0,4370910645","9,664203186","9,680845487"
"7,248081792","0,3793112183","0,4361929321","9,590706024","9,608110289"
"7,258034792","0,3975732422","0,4318519592","9,500892792","9,519008585"
"7,267987792","0,3986210632","0,4369413757","9,436526642","9,455043711"
"7,277940792","0,4043092346","0,4288581848","9,359586639","9,378126005"
"7,287893792","0,423918457","0,4273612976","9,287286987","9,306774099"
"7,297846792","0,4282594299","0,422870636","9,211245117","9,230886324"
"7,307800792","0,4243675232","0,4104464722","9,147328033","9,166360469"
"7,317753792","0,4242178345","0,419128418","9,079069977","9,098634021"
"7,327706792","0,423918457","0,4230203247","9,018446045","9,038308587"
"7,337659792","0,4111949158","0,4143383789","8,971144409","8,990116215"
"7,347612792","0,4077520752","0,4128414917","8,917406158","8,936265017"
"7,357566792","0,4086502075","0,4129911804","8,873846741","8,892846152"
"7,367519792","0,4119433594","0,4116439819","8,836873627","8,856042208"
"7,377472792","0,4125421143","0,4237687683","8,806636505","8,82647254"
"7,387425792","0,4162843323","0,4258644104","8,779243469","8,799418676"
"7,397378792","0,4161346436","0,4261637878","8,744815063","8,76507696"
"7,407331792","0,4233197021","0,4354444885","8,735384674","8,75646943"
"7,417285792","0,4400848389","0,439486084","8,747958527","8,77003997"
"7,427238792","0,4569996643","0,4462220764","8,746012573","8,769304349"
"7,437191792","0,4638853455","0,4378395081","8,749455414","8,772677076"
"7,447144792","0,4665797424","0,4272116089","8,764873352","8,787673827"
"7,457097792","0,4734654236","0,4317022705","8,787626038","8,810953849"
"7,467051792","0,4643344116","0,4245172119","8,810977478","8,833410747"
"7,477004792","0,4734654236","0,4147874451","8,836873627","8,859263718"
"7,486957792","0,4607418823","0,4059558105","8,869805145","8,891036302"
"7,496910792","0,4481680298","0,3938310242","8,893006897","8,912997763"
"7,506863792","0,4402345276","0,3890409851","8,930728455","8,950031847"
"7,516816792","0,4348457336","0,3763174438","8,963360596","8,981789287"
"7,526770792","0,4168830872","0,3613485718","9,001082153","9,017973399"
"7,536723792","0,3861968994","0,3513194275","9,04479126","9,059846705"
"7,546676792","0,3897894287","0,3354524231","9,084009705","9,098554635"
"7,556629792","0,3770658875","0,3228785706","9,144783325","9,158247175"
"7,566582792","0,3505709839","0,3073109436","9,195228424","9,207038927"
"7,576536792","0,3498225403","0,2878514099","9,248218231","9,259307463"
"7,586489792","0,3388952637","0,2811154175","9,289831696","9,300260685"
"7,596442792","0,3317102051","0,282462616","9,338929596","9,349086735"
"7,606395792","0,3170407104","0,2820135498","9,3946138","9,404191348"
"7,616348542","0,307610321","0,290994873","9,430988159","9,440489383"
"7,626301542","0,3049159241","0,2996768188","9,482930145","9,492562565"
"7,636255542","0,2921923828","0,305514679","9,521400146","9,530780469"
"7,646208542","0,2767744446","0,307610321","9,564809875","9,573756638"
"7,656161542","0,2833607483","0,2984793091","9,632918243","9,64170613"
"7,666114542","0,283510437","0,2947370911","9,694889374","9,703511122"
"7,676067542","0,2838098145","0,2841091919","9,757010193","9,765270808"
"7,686021542","0,2836601257","0,2725831604","9,824519806","9,832393099"
"7,695974542","0,2984793091","0,2565664673","9,905202026","9,913018886"
"7,705927542","0,3195854187","0,2480342102","9,986782379","9,994972641"
"7,715880542","0,3403921509","0,2344125366","10,04935226","10,05784753"
"7,725833542","0,3399430847","0,237406311","10,12299911","10,13148726"
"7,735787542","0,3603007507","0,2233355713","10,18452118","10,19333935"
"7,745740542","0,3969744873","0,2273771667","10,24813889","10,25834488"
"7,755693542","0,4114942932","0,2218386841","10,32193542","10,33251619"
"7,765646542","0,4222718811","0,2206411743","10,39902512","10,40993369"
"7,775599542","0,4439767456","0,2180964661","10,45949936","10,47118944"
"7,785552542","0,4781057739","0,204175415","10,52985306","10,54267889"
"7,795506542","0,505947876","0,2007325745","10,59945831","10,61342515"
"7,805459542","0,5108876038","0,189206543","10,65693878","10,67085514"
"7,815412542","0,5204676819","0,1817221069","10,71980804","10,73397382"
"7,825365542","0,5498066711","0,168848877","10,78177917","10,79710885"
"7,835318542","0,5587879944","0,1663041687","10,84015778","10,85582432"
"7,845271542","0,562230835","0,162412262","10,8810228","10,89674898"
"7,855225542","0,5592370605","0,1529818726","10,94389206","10,95923916"
"7,865178542","0,5637277222","0,1462458801","11,00676132","11,02215821"
"7,875131542","0,5593867493","0,1308279419","11,05795486","11,07286753"
"7,885084542","0,5589376831","0,1124162292","11,11827942","11,13288758"
"7,895037542","0,5526507568","0,1043330383","11,1848909","11,19902195"
"7,904991542","0,532742157","0,08487350464","11,23309067","11,2460368"
"7,914944542","0,5080435181","0,06855743408","11,29416367","11,30579238"
"7,924897542","0,4899311829","0,05269042969","11,34655472","11,35724935"
"7,934850542","0,4951702881","0,03427871704","11,38367752","11,39449352"
"7,944803542","0,4833448792","0,02050735474","11,43262573","11,4428569"
"7,954756542","0,4559518433","0,007334747314","11,48262177","11,49167301"
"7,964710542","0,4805007935","-0,009131011963","11,52752838","11,53754198"
"7,974663542","0,4840933228","-0,03562591553","11,56659714","11,57677783"
"7,984616542","0,4725672913","-0,05718109131","11,63590302","11,6456356"
"7,994569542","0,4709207153","-0,08113128662","11,67422333","11,68399927"
"8,004522542","0,4819976807","-0,1067280579","11,70341263","11,71382003"
"8,014475542","0,4825964355","-0,1258882141","11,72152496","11,73213086"
"8,024429542","0,4794529724","-0,139360199","11,73664352","11,74725915"
"8,034382542","0,4819976807","-0,1580712891","11,74652298","11,75747041"
"8,044335542","0,4728666687","-0,1603166199","11,72721313","11,73783763"
"8,054288542","0,473764801","-0,1877096558","11,71942932","11,73050347"
"8,064241542","0,4472698975","-0,1951940918","11,70700516","11,71717205"
"8,074195542","0,4156855774","-0,2085163879","11,69113815","11,70038396"
"8,084148542","0,4135899353","-0,2195933533","11,66988235","11,67927361"
"8,094101542","0,3920347595","-0,21061203","11,6414415","11,64994458"
"8,104054542","0,379460907","-0,216000824","11,61913788","11,62733899"
"8,114007542","0,3603007507","-0,2094145203","11,58605667","11,59354908"
"8,123960542","0,3468287659","-0,2100132751","11,53276749","11,53989262"
"8,133914542","0,3517684937","-0,2167492676","11,49175278","11,49917837"
"8,143867542","0,3022215271","-0,2115101624","11,43082947","11,43678"
"8,153820542","0,2956352234","-0,2237846375","11,39370667","11,39973821"
"8,163773542","0,2869532776","-0,2453398132","11,3547876","11,36106224"
"8,173726542","0,2579136658","-0,2389031982","11,30389343","11,309359"
"8,183680542","0,2398013306","-0,2486329651","11,26168121","11,26697771"
"8,193633542","0,2161505127","-0,2420466614","11,22306152","11,22775212"
"8,203586542","0,2200424194","-0,2453398132","11,17501144","11,1798699"
"8,213539542","0,2329156494","-0,2384541321","11,12756012","11,13255156"
"8,223492542","0,232616272","-0,2381547546","11,06513992","11,07014677"
"8,233445542","0,2519261169","-0,2375559998","11,02741837","11,03285346"
"8,243399542","0,2480342102","-0,245489502","10,95781311","10,96336874"
"8,253352542","0,263152771","-0,2597099304","10,91111023","10,91737263"
"8,263305542","0,2880010986","-0,2649490356","10,8358168","10,842881"
"8,273258542","0,2917433167","-0,2707868958","10,77938416","10,78673085"
"8,283211542","0,302820282","-0,2769241333","10,72295151","10,73080035"
"8,293164542","0,3085084534","-0,2880010986","10,67804489","10,68638221"
"8,303118542","0,2962339783","-0,2905458069","10,58987823","10,59800417"
"8,313071542","0,3121009827","-0,2903961182","10,51727921","10,52591558"
"8,323024542","0,3165916443","-0,2941383362","10,44632675","10,45526137"
"8,332977542","0,3308120728","-0,2981799316","10,37881714","10,38836816"
"8,342930542","0,3254232788","-0,3007246399","10,30292496","10,31244871"
"8,352884542","0,3200344849","-0,3122506714","10,224039","10,23381141"
"8,362837542","0,3254232788","-0,310304718","10,14874557","10,15870199"
"8,372790542","0,3059637451","-0,3050656128","10,09321106","10,10245457"
"8,382743542","0,2969824219","-0,3047662354","10,03662872","10,04564568"
"8,392696542","0,289947052","-0,297431488","9,955796814","9,964458088"
"8,402649542","0,2947370911","-0,2881507874","9,900711365","9,909287883"
"8,412603542","0,2950364685","-0,2811154175","9,856702881","9,865123622"
"8,422556542","0,2847079468","-0,292641449","9,793683929","9,802190701"
"8,432509542","0,2894979858","-0,2962339783","9,742939453","9,75173999"
"8,442462542","0,2820135498","-0,3029699707","9,669741669","9,678596302"
"8,452415542","0,255668335","-0,3052153015","9,613758087","9,621999129"
"8,462368542","0,2330653381","-0,3131488037","9,565558319","9,573520125"
"8,472322542","0,2381547546","-0,3125500488","9,506431274","9,514548901"
"8,482275542","0,2267784119","-0,3100053406","9,439221039","9,447032634"
"8,492228542","0,2109114075","-0,2989283752","9,395212555","9,402332729"
"8,502181542","0,1872605896","-0,2980302429","9,351204071","9,35782593"
"8,512134542","0,1857637024","-0,2912942505","9,287736053","9,294159537"
"8,522088542","0,1954934692","-0,2918930054","9,242080994","9,248755609"
"8,532041542","0,1646575928","-0,2815644836","9,185348969","9,191138469"
"8,541994542","0,1383123779","-0,2689906311","9,138795776","9,143799785"
"8,551947542","0,1231938171","-0,2498304749","9,079968109","9,084239806"
"8,561900542","0,1146615601","-0,2347119141","9,024283905","9,028063854"
"8,571853542","0,1133143616","-0,2243833923","8,966653748","8,970176558"
"8,581807542","0,09310638428","-0,2023791504","8,926686859","8,929466076"
"8,591760542","0,0853225708","-0,1935475159","8,892108765","8,894624155"
"8,601713542","0,08187973022","-0,1823208618","8,856482849","8,8587377"
"8,611666542","0,06765930176","-0,1793270874","8,823701019","8,825782439"
"8,621619042","0,05224136353","-0,1781295776","8,814420319","8,816374814"
"8,631572042","0,04969665527","-0,1697470093","8,798852692","8,800630233"
"8,641526042","0,05044509888","-0,1669029236","8,782386932","8,784117572"
"8,651479042","0,0628692627","-0,1562750244","8,778345337","8,779961349"
"8,661432042","0,04909790039","-0,1451980591","8,78388382","8,785221001"
"8,671385042","0,07499404907","-0,1483415222","8,787775726","8,789347617"
"8,681338042","0,0722996521","-0,1408570862","8,804540863","8,805964329"
"8,691292042","0,07319778442","-0,1326242065","8,814420319","8,815721902"
"8,701245042","0,06256988525","-0,1320254517","8,833580475","8,834788606"
"8,711198042","0,06077362061","-0,1278341675","8,870852966","8,871982155"
"8,721151042","0,05074447632","-0,130229187","8,891809387","8,892907782"
"8,731104042","0,04834945679","-0,1285826111","8,944200439","8,945255315"
"8,741057042","0,04909790039","-0,1248403931","8,989556122","8,99055699"
"8,751011042","0,06481521606","-0,1221459961","9,044192505","9,045249511"
"8,760964042","0,06047424316","-0,1318757629","9,093140717","9,094298018"
"8,770917042","0,0505947876","-0,1324745178","9,140142975","9,141242964"
"8,780870042","0,05104385376","-0,1348695374","9,174421692","9,17555495"
"8,790823042","0,05403762817","-0,1350192261","9,234895935","9,236040991"
"8,800776042","0,05583389282","-0,1315763855","9,303902435","9,305000284"
"8,810730042","0,05658233643","-0,129181366","9,356293488","9,357356315"
"8,820683042","0,08352630615","-0,1327738953","9,411828003","9,413135073"
"8,830636042","0,1068777466","-0,1240919495","9,465715942","9,467132616"
"8,840589042","0,143102417","-0,1231938171","9,550589447","9,552455904"
"8,850542042","0,1751358032","-0,1206491089","9,6122612","9,614613572"
"8,860495042","0,199385376","-0,1058299255","9,668993225","9,67162781"
"8,870449042","0,2414479065","-0,1059796143","9,721983032","9,725558228"
"8,880402042","0,2784210205","-0,09744735718","9,784852295","9,78929766"
"8,890355042","0,2906954956","-0,08816665649","9,852361908","9,857043796"
"8,900308042","0,3047662354","-0,08397537231","9,893825684","9,898874733"
"8,910261042","0,3282673645","-0,07259902954","9,942624207","9,9483067"
"8,920215042","0,3311114502","-0,06990463257","9,998009033","10,00373461"
"8,930168042","0,3531156921","-0,05224136353","10,07120682","10,07753078"
"8,940121042","0,3468287659","-0,04670288086","10,15652939","10,16255679"
"8,950074042","0,3381468201","-0,03158432007","10,21251297","10,21815844"
"8,960027042","0,3484753418","-0,02230361938","10,27822632","10,2841562"
"8,969980042","0,3468287659","-0,02619552612","10,34828064","10,35412423"
"8,979934042","0,3409909058","-0,02320175171","10,42522064","10,43082157"
"8,989887042","0,3164419556","-0,02245330811","10,4907843","10,49557978"
"8,999840042","0,3032693481","-0,01930984497","10,54437286","10,54875084"
"9,009793042","0,2944377136","0,005837860107","10,61233154","10,61641693"
"9,019746042","0,2601589966","0,03083587646","10,69031937","10,69352896"
"9,029699042","0,2659968567","0,05433700562","10,75348801","10,75691457"
"9,039653042","0,2736309814","0,07619155884","10,81486038","10,81858975"
"9,049606042","0,2680924988","0,09654922485","10,88162155","10,88535176"
"9,059559042","0,2757266235","0,1152603149","10,94703552","10,95111395"
"9,069512042","0,2685415649","0,1317260742","11,01304825","11,01710933"
"9,079465042","0,2546205139","0,1472937012","11,06214615","11,06605641"
"9,089419042","0,2499801636","0,1483415222","11,10555588","11,10935942"
"9,099372042","0,2546205139","0,167202301","11,1477681","11,15192906"
"9,109325042","0,2442919922","0,1691482544","11,18923187","11,19317648"
"9,119278042","0,250279541","0,1860630798","11,23862915","11,24295533"
"9,129231042","0,2426454163","0,1981878662","11,26841721","11,27277169"
"9,139184042","0,24923172","0,2056723022","11,32709518","11,33170344"
"9,149138042","0,2377056885","0,2139051819","11,36870865","11,37320517"
"9,159091042","0,2287243652","0,2168989563","11,40298737","11,40734329"
"9,169044042","0,1989363098","0,2255809021","11,43067978","11,43463609"
"9,178997042","0,2104623413","0,2471360779","11,4742392","11,4788299"
"9,188950042","0,2109114075","0,2534230042","11,50552414","11,51024729"
"9,198903042","0,2161505127","0,2544708252","11,53441406","11,53924539"
"9,208857042","0,2210902405","0,2583627319","11,55372391","11,55872693"
"9,218810042","0,2375559998","0,2547702026","11,57048904","11,5757314"
"9,228763042","0,2618055725","0,2564167786","11,60895905","11,61474157"
"9,238716042","0,2805166626","0,2534230042","11,62707138","11,63321545"
"9,248669042","0,3008743286","0,260458374","11,65162033","11,65841414"
"9,258623042","0,3189866638","0,2739303589","11,65850601","11,66608558"
"9,268576042","0,3439846802","0,2749781799","11,68006119","11,68836036"
"9,278529042","0,3576063538","0,2880010986","11,66853516","11,67756566"
"9,288482042","0,3694317627","0,3005749512","11,64503403","11,65476909"
"9,298435042","0,3866459656","0,3007246399","11,62722107","11,63753411"
"9,308388042","0,3808081055","0,3086581421","11,60132492","11,61167622"
"9,318342042","0,4086502075","0,3122506714","11,60072617","11,61212052"
"9,328295042","0,4052073669","0,3302133179","11,5670462","11,57885105"
"9,338248042","0,4135899353","0,3436853027","11,53695877","11,54948457"
"9,348201042","0,422870636","0,3538641357","11,51091293","11,52411194"
"9,358154042","0,4146377563","0,3677851868","11,46241379","11,47580587"
"9,368107042","0,4101470947","0,3608995056","11,42529099","11,4383453"
"9,378061042","0,4219725037","0,3644920349","11,35553604","11,36921783"
"9,388014042","0,4415817261","0,3737727356","11,29865433","11,31345615"
"9,397967042","0,4460723877","0,3769161987","11,25000549","11,26515291"
"9,407920042","0,4305047607","0,3766168213","11,17665802","11,19128496"
"9,417873042","0,4569996643","0,3876937866","11,11289063","11,12903829"
"9,427826042","0,4878355408","0,4026626587","11,05660767","11,07468708"
"9,437780042","0,4767585754","0,4122427368","10,99433716","11,01238813"
"9,447733042","0,4888833618","0,4167333984","10,94479019","10,9636265"
"9,457686042","0,5046006775","0,4294569397","10,87114334","10,89131822"
"9,467639042","0,502205658","0,4372407532","10,79420334","10,81472217"
"9,477592042","0,5081932068","0,4517605591","10,74091415","10,76241538"
"9,487545042","0,4978646851","0,4643344116","10,68163742","10,70331041"
"9,497499042","0,4846920776","0,4643344116","10,61667252","10,63786953"
"9,507452042","0,48559021","0,4701722717","10,5558989","10,57751678"
"9,517405042","0,4607418823","0,4604425049","10,49901718","10,51920397"
"9,527358042","0,4189787292","0,4623884583","10,43165726","10,45030236"
"9,537311042","0,3866459656","0,4547543335","10,37477554","10,39193265"
"9,547265042","0,3644920349","0,4399351501","10,307715","10,32353553"
"9,557218042","0,325872345","0,444276123","10,24050476","10,25531627"
"9,567171042","0,3350033569","0,4474195862","10,18062927","10,19596116"
"9,577124042","0,3327580261","0,444276123","10,10817993","10,12340905"
"9,587077042","0,3326083374","0,4381388855","10,05219635","10,06723624"
"9,597030042","0,3402424622","0,4355941772","9,982591095","9,997881385"
"9,606984042","0,347277832","0,4245172119","9,918075256","9,933228757"
"9,616937667","0,3420387268","0,4026626587","9,852062531","9,866218314"
"9,626890667","0,3421884155","0,4102967834","9,784552917","9,799128133"
"9,636843667","0,3335064697","0,3981719971","9,714498596","9,728373476"
"9,646796667","0,3225791931","0,3841012573","9,640552368","9,653592133"
"9,656749667","0,3200344849","0,3739224243","9,591903534","9,604522552"
"9,666703667","0,3207829285","0,3677851868","9,544751587","9,557219809"
"9,676656667","0,3219804382","0,3610491943","9,477990417","9,490328249"
"9,686609667","0,3213816833","0,3589535522","9,433083801","9,445380026"
"9,696562667","0,2972817993","0,3442840576","9,383087769","9,394106879"
"9,706515667","0,2878514099","0,3326083374","9,342222748","9,352572513"
"9,716468667","0,3031196594","0,3300636292","9,300459595","9,311249766"
"9,726422667","0,2915936279","0,3212319946","9,253607025","9,26377136"
"9,736375667","0,2983296204","0,3035687256","9,215885468","9,225708617"
"9,746328667","0,300125885","0,3077600098","9,185648346","9,195701567"
"9,756281667","0,3037184143","0,3134481812","9,158105621","9,168500052"
"9,766234667","0,326920166","0,3013233948","9,119336243","9,130167911"
"9,776187667","0,3433859253","0,29368927","9,075627136","9,086868283"
"9,786141667","0,3547622681","0,3010240173","9,050479431","9,062430671"
"9,796094667","0,3558100891","0,2881507874","9,00617157","9,017802284"
"9,806047667","0,3712280273","0,2893482971","8,980724487","8,993049817"
"9,816000667","0,3706292725","0,2799179077","8,950487366","8,96253001"
"9,825953667","0,3664379883","0,2712359619","8,918154602","8,929799956"
"9,835906667","0,3851490784","0,2710862732","8,889863434","8,902331125"
"9,845860667","0,390687561","0,2634521484","8,868907013","8,881416295"
"9,855813667","0,409997406","0,2649490356","8,861871643","8,875306467"
"9,865766667","0,4225712585","0,2615061951","8,853040009","8,866976336"
"9,875719667","0,425565033","0,2592608643","8,84345993","8,857488658"
"9,885672667","0,4270619202","0,2568658447","8,835975494","8,850018355"
"9,895625667","0,444276123","0,2610571289","8,836424561","8,851436669"
"9,905579667","0,4269122314","0,2570155334","8,849746857","8,863765028"
"9,915532667","0,4257147217","0,263152771","8,858877869","8,873003973"
"9,925485667","0,4282594299","0,2547702026","8,888516235","8,902473525"
"9,935438667","0,4198768616","0,2568658447","8,901090088","8,91468908"
"9,945391667","0,4108955383","0,247585144","8,919950867","8,932841486"
"9,955345667","0,4141886902","0,2420466614","8,951984253","8,964829107"
"9,965298667","0,4047583008","0,2393522644","8,991352386","9,003640182"
"9,975251667","0,4041595459","0,2345622253","9,037606201","9,049679012"
"9,985204667","0,3995191956","0,2177970886","9,077722778","9,089119979"
"9,995157667","0,4135899353","0,2155517578","9,123976593","9,135889013"
"10,00511067","0,4155358887","0,2165995789","9,191486206","9,2034235"
"10,01506467","0,4326004028","0,2103126526","9,253756714","9,266249934"
"10,02501767","0,4345463562","0,196690979","9,324110413","9,336302955"
"10,03497067","0,4278103638","0,1826202393","9,389225006","9,400740294"
"10,04492367","0,4257147217","0,1755848694","9,459279327","9,470481955"
"10,05487667","0,4200265503","0,1716929626","9,541159058","9,551943098"
"10,06482967","0,4186793518","0,1592687988","9,614506531","9,624936092"
"10,07478367","0,4212240601","0,1568737793","9,685908051","9,696331979"
"10,08473667","0,4092489624","0,1463955688","9,740394745","9,750087495"
"10,09468967","0,4023632813","0,1386117554","9,827962646","9,837172318"
"10,10464267","0,3808081055","0,1321751404","9,91059082","9,91878498"
"10,11459567","0,3662882996","0,1288819885","9,978848877","9,986400883"
"10,12454867","0,3667373657","0,1245410156","10,05010071","10,05756089"
"10,13450267","0,3414399719","0,102387085","10,11192215","10,1182031"
"10,14445567","0,3201841736","0,09056167603","10,17449203","10,17993161"
"10,15440867","0,3165916443","0,08083190918","10,2493364","10,25454341"
"10,16436167","0,3110531616","0,0636177063","10,3023262","10,3072172"
"10,17431467","0,2993774414","0,04311035156","10,36624329","10,370655"
"10,18426767","0,3050656128","0,03861968994","10,41129959","10,41583965"
"10,19422167","0,3071612549","0,0260458374","10,48629364","10,49082364"
"10,20417467","0,302820282","0,01392105103","10,54601944","10,55037535"
"10,21412767","0,3050656128","0,001347198486","10,61307999","10,61746362"
"10,22408067","0,2947370911","-0,008382568359","10,67505112","10,67912246"
"10,23403367","0,2962339783","-0,0130229187","10,73986633","10,74395891"
"10,24398667","0,2915936279","-0,02230361938","10,79270645","10,79666786"
"10,25394067","0,2863545227","-0,02335144043","10,85303101","10,85683316"
"10,26389367","0,2902464294","-0,03188369751","10,90856552","10,91247274"
"10,27384667","0,3115022278","-0,04131408691","10,97233292","10,97683152"
"10,28379967","0,3177891541","-0,04864883423","11,03864502","11,04332561"
"10,29375267","0,3240760803","-0,06451583862","11,08280319","11,08772809"
"10,30370567","0,3335064697","-0,07214996338","11,13609238","11,14131884"
"10,31365967","0,3414399719","-0,0758921814","11,19971008","11,20517054"
"10,32361267","0,3396437073","-0,07619155884","11,25225082","11,25763348"
"10,33356567","0,3517684937","-0,08472381592","11,28907425","11,29487125"
"10,34351867","0,3652404785","-0,08726852417","11,32604736","11,33227097"
"10,35347167","0,3827540588","-0,0975970459","11,36017639","11,36704155"
"10,36342467","0,406255188","-0,09804611206","11,39879608","11,40645468"
"10,37337867","0,4243675232","-0,1011895752","11,43352386","11,44184404"
"10,38333167","0,4391867065","-0,1095721436","11,44969025","11,4586342"
"10,39328467","0,4504133606","-0,1113684082","11,47573608","11,48511183"
"10,40323767","0,4799020386","-0,1187031555","11,49160309","11,50223187"
"10,41319067","0,4905299377","-0,1234931946","11,5179483","11,52905041"
"10,42314367","0,5099894714","-0,1315763855","11,53082153","11,54284397"
"10,43309767","0,4975653076","-0,1483415222","11,53441406","11,54609389"
"10,44305067","0,5077441406","-0,1401086426","11,55357422","11,56557442"
"10,45300367","0,5065466309","-0,149539032","11,56659714","11,57864935"
"10,46295667","0,5093907166","-0,1615141296","11,56809402","11,58043026"
"10,47290967","0,5182223511","-0,16615448","11,56959091","11,58238298"
"10,48286267","0,5008584595","-0,1663041687","11,57093811","11,58296702"
"10,49281667","0,483943634","-0,180075531","11,588302","11,59980051"
"10,50276967","0,4731660461","-0,1936972046","11,58006912","11,59135046"
"10,51272267","0,4676275635","-0,1977388","11,57213562","11,58326806"
"10,52267567","0,4468208313","-0,1974394226","11,55402328","11,56434543"
"10,53262867","0,4270619202","-0,2016307068","11,5432457","11,55290258"
"10,54258167","0,4173321533","-0,2164498901","11,5392041","11,5487769"
"10,55253567","0,4182302856","-0,2201921082","11,50747009","11,51717279"
"10,56248867","0,4092489624","-0,2188449097","11,47633484","11,48571457"
"10,57244167","0,4070036316","-0,2228865051","11,44175674","11,45116272"
"10,58239467","0,398770752","-0,2308200073","11,41211838","11,42141593"
"10,59234767","0,3769161987","-0,2386038208","11,35733231","11,36608968"
"10,60230067","0,3697311401","-0,2462379456","11,30359406","11,31231951"
"10,61225467","0,3388952637","-0,2517764282","11,24835892","11,25627912"
"10,62220692","0,3192860413","-0,2700384521","11,19581818","11,20362481"
"10,63215992","0,3085084534","-0,2920426941","11,13264954","11,14075186"
"10,64211292","0,2902464294","-0,2972817993","11,058853","11,06665483"
"10,65206592","0,2725831604","-0,2941383362","10,97951797","10,98683912"
"10,66201892","0,254021759","-0,2848576355","10,92548035","10,93214488"
"10,67197292","0,2559677124","-0,2814147949","10,85303101","10,85969593"
"10,68192592","0,2496807861","-0,2857557678","10,76875626","10,77544004"
"10,69187892","0,2260299683","-0,2841091919","10,69735474","10,70351372"
"10,70183192","0,2005828857","-0,2799179077","10,61936691","10,624949"
"10,71178492","0,1990859985","-0,274379425","10,54991135","10,5553564"
"10,72173792","0,2017803955","-0,2640509033","10,46982788","10,47510067"
"10,73169192","0,1910028076","-0,2544708252","10,40935364","10,41421532"
"10,74164492","0,1919009399","-0,2468367004","10,33675461","10,34148201"
"10,75159792","0,1963916016","-0,2405497742","10,27837601","10,28306604"
"10,76155092","0,2121089172","-0,2366578674","10,21281235","10,21775578"
"10,77150392","0,2182461548","-0,2291734314","10,15188904","10,15682051"
"10,78145692","0,2242337036","-0,2348616028","10,06716522","10,07240072"
"10,79141092","0,2345622253","-0,2285746765","10,03109024","10,03643548"
"10,80136392","0,2484832764","-0,2200424194","9,969268799","9,974792378"
"10,81131692","0,243842926","-0,22348526","9,895023193","9,900549936"
"10,82126992","0,2472857666","-0,2146536255","9,843230896","9,848676099"
"10,83122292","0,2609074402","-0,209564209","9,788145447","9,793864464"
"10,84117592","0,263152771","-0,2139051819","9,726024628","9,731935052"
"10,85112992","0,2636018372","-0,2052232361","9,673334198","9,679101044"
"10,86108292","0,2716850281","-0,1953437805","9,606872406","9,61269834"
"10,87103592","0,2676434326","-0,1836680603","9,558672638","9,56418264"
"10,88098892","0,259410553","-0,1752854919","9,497449951","9,502608821"
"10,89094192","0,2609074402","-0,1823208618","9,454040222","9,459396921"
"10,90089492","0,2719844055","-0,1654060364","9,384734344","9,390131702"
"10,91084892","0,2779719543","-0,1728904724","9,340276794","9,346011455"
"10,92080192","0,2847079468","-0,1663041687","9,297914886","9,30375929"
"10,93075492","0,2832110596","-0,1591191101","9,241182861","9,246890725"
"10,94070792","0,3047662354","-0,1580712891","9,209598541","9,215995567"
"10,95066092","0,3044668579","-0,1383123779","9,17576889","9,181860656"
"10,96061392","0,2975811768","-0,1332229614","9,125623169","9,131445731"
"10,97056792","0,297431488","-0,1258882141","9,096733246","9,102465"
"10,98052092","0,3101550293","-0,1209484863","9,060209198","9,066323146"
"10,99047392","0,3083587646","-0,1157093811","9,042545929","9,048541908"
"11,00042692","0,3037184143","-0,1179547119","9,009165344","9,015055096"
"11,01037992","0,2972817993","-0,1142124939","9,007668457","9,0132964"
"11,02033292","0,2814147949","-0,1202000427","8,99210083","8,997306246"
"11,03028692","0,2788700867","-0,1139131165","8,96874939","8,973806903"
"11,04023992","0,2549198914","-0,1151106262","8,963210907","8,967574052"
"11,05019292","0,2451901245","-0,1185534668","8,967701569","8,971836186"
"11,06014592","0,2206411743","-0,106129303","8,951235809","8,954583657"
"11,07009892","0,2049238586","-0,1112187195","8,951834564","8,954870488"
"11,08005192","0,1914518738","-0,1020877075","8,954528961","8,957157174"
"11,09000592","0,1664538574","-0,09520202637","8,932524719","8,934582708"
"11,09995892","0,1511856079","-0,08921447754","8,946894836","8,94861685"
"11,10991192","0,1338217163","-0,08652008057","8,946894836","8,948313874"
"11,11986492","0,1248403931","-0,07469467163","8,9500383","8,951220586"
"11,12981792","0,1070274353","-0,06646179199","8,966054993","8,966940067"
"11,13977092","0,1022373962","-0,0679586792","8,985963593","8,986802132"
"11,14972492","0,0889151001","-0,05748046875","9,001531219","9,002153864"
"11,15967792","0,0889151001","-0,05014572144","9,018895111","9,019472796"
"11,16963092","0,08756790161","-0,04086502075","9,036408691","9,036925369"
"11,17958392","0,09654922485","-0,03936813354","9,070388031","9,070987302"
"11,18953692","0,08517288208","-0,03532653809","9,10556488","9,106031747"
"11,19948992","0,09295669556","-0,02395019531","9,151818695","9,152322109"
"11,20944392","0,09101074219","-0,004640350342","9,173074493","9,173527138"
"11,21939692","0,08502319336","0,008831634521","9,233399048","9,233794719"
"11,22934992","0,08921447754","0,01691482544","9,288334808","9,288778652"
"11,23930292","0,09310638428","0,02649490356","9,340576172","9,341077775"
"11,24925592","0,1020877075","0,03412902832","9,402247925","9,402864071"
"11,25920892","0,1179547119","0,05149291992","9,460776215","9,461651622"
"11,26916292","0,1121168518","0,05897735596","9,536967773","9,537809121"
"11,27911592","0,1245410156","0,0628692627","9,608518982","9,609531728"
"11,28906892","0,1371148682","0,07723937988","9,674382019","9,675661934"
"11,29902192","0,1369651794","0,08637039185","9,755513306","9,756857033"
"11,30897492","0,1378633118","0,08352630615","9,844278717","9,845598326"
"11,31892792","0,1480421448","0,0896635437","9,912536774","9,914047676"
"11,32888192","0,1613644409","0,07978408813","9,995015259","9,996636135"
"11,33883492","0,180075531","0,09939331055","10,07390121","10,07600079"
"11,34878792","0,1833686829","0,1065783691","10,15548157","10,15769604"
"11,35874092","0,1950444031","0,1152603149","10,24050476","10,24301054"
"11,36869392","0,1971400452","0,1239422607","10,30741562","10,31004571"
"11,37864692","0,2180964661","0,1353186035","10,38001465","10,38318743"
"11,38860092","0,2338137817","0,1323248291","10,44153671","10,44499247"
"11,39855392","0,256716156","0,1538800049","10,52685928","10,53111336"
"11,40850692","0,2805166626","0,1627116394","10,57520874","10,5801798"
"11,41845992","0,2954855347","0,1637594604","10,63358734","10,63895242"
"11,42841292","0,3005749512","0,1739382935","10,68597839","10,69161981"
"11,43836592","0,3236270142","0,1770817566","10,74495575","10,75128673"
"11,44831992","0,3216810608","0,1881587219","10,79300583","10,79943782"
"11,45827292","0,3047662354","0,1968406677","10,84958817","10,85565254"
"11,46822592","0,3062631226","0,1992356873","10,90721832","10,91333604"
"11,47817892","0,3222798157","0,2061213684","10,95422058","10,96089863"
"11,48813192","0,3182382202","0,2026785278","10,99478622","11,00125803"
"11,49808492","0,2999761963","0,2065704346","11,03849533","11,04450253"
"11,50803892","0,309256897","0,2128573608","11,07891129","11,08527056"
"11,51799192","0,314046936","0,2228865051","11,12576385","11,13242674"
"11,52794492","0,2927911377","0,2341131592","11,17246674","11,17875434"
"11,53789792","0,3047662354","0,2377056885","11,21452927","11,22118769"
"11,54785092","0,316741333","0,2430944824","11,24611359","11,25319914"
"11,55780392","0,3218307495","0,2628533936","11,29955246","11,30719031"
"11,56775792","0,3100053406","0,2636018372","11,33817215","11,34547209"
"11,57771092","0,3287164307","0,2686912537","11,38652161","11,39443389"
"11,58766392","0,3382965088","0,2739303589","11,39909546","11,40740372"
"11,59761692","0,3144960022","0,2775228882","11,43561951","11,44330897"
"11,60756992","0,3052153015","0,292641449","11,44849274","11,45629876"
"11,61752292","0,3050656128","0,305514679","11,47573608","11,48385488"
"11,62747667","0,2730322266","0,3071612549","11,48381927","11,49117051"
"11,63743067","0,2519261169","0,3177891541","11,488759","11,49591406"
"11,64738367","0,2523751831","0,3339555359","11,50058441","11,50819974"
"11,65733667","0,2409988403","0,3415896606","11,49025589","11,49785825"
"11,66728967","0,240100708","0,3480262756","11,49983597","11,50760609"
"11,67724267","0,2468367004","0,3502716064","11,5034285","11,51140677"
"11,68719567","0,2384541321","0,3478765869","11,48771118","11,4954507"
"11,69714967","0,2366578674","0,3460803223","11,47962799","11,48728155"
"11,70710267","0,2282752991","0,3471281433","11,47723297","11,48475007"
"11,71705567","0,2171983337","0,3439846802","11,4595697","11,46678849"
"11,72700867","0,2083666992","0,3409909058","11,44879211","11,45576415"
"11,73696167","0,204175415","0,3427871704","11,43232635","11,43928654"
"11,74691467","0,2157014465","0,3460803223","11,41466309","11,4219452"
"11,75686867","0,2242337036","0,3480262756","11,40972336","11,41723216"
"11,76682167","0,2269281006","0,3403921509","11,37813904","11,38549126"
"11,77677467","0,2480342102","0,3418890381","11,36107452","11,36892358"
"11,78672767","0,2600093079","0,3400927734","11,32963989","11,33772499"
"11,79668067","0,2742297363","0,3396437073","11,30194748","11,31037473"
"11,80663367","0,2920426941","0,3429368591","11,26213028","11,27113451"
"11,81658767","0,2984793091","0,3418890381","11,20794296","11,21712813"
"11,82654067","0,3185375977","0,3468287659","11,17740646","11,18732192"
"11,83649367","0,3353027344","0,3486250305","11,12621292","11,1367222"
"11,84644667","0,3454815674","0,3466790771","11,07427094","11,08508099"
"11,85639967","0,356408844","0,3429368591","10,99897751","11,01009261"
"11,86635267","0,3619473267","0,3426374817","10,94284424","10,95418853"
"11,87630667","0,367635498","0,3336561584","10,87952591","10,89084782"
"11,88625967","0,3650907898","0,3288661194","10,80318466","10,81435357"
"11,89621267","0,3829037476","0,3165916443","10,73283096","10,74432436"
"11,90616567","0,3823049927","0,3125500488","10,64571213","10,65715869"
"11,91611867","0,386945343","0,3132984924","10,56158707","10,57331566"
"11,92607167","0,4019142151","0,3158432007","10,4921315","10,50457593"
"11,93602567","0,4070036316","0,312999115","10,40546173","10,41812144"
"11,94597867","0,4192781067","0,2968327332","10,33196457","10,34472792"
"11,95593167","0,4331991577","0,3073109436","10,26056305","10,27430074"
"11,96588467","0,4418811035","0,3041674805","10,18317398","10,1972942"
"11,97583767","0,4474195862","0,297431488","10,11431717","10,12857648"
"11,98579067","0,4688250732","0,3109034729","10,03333557","10,04909352"
"11,99574467","0,4647834778","0,3013233948","9,962383118","9,977770134"
"12,00569767","0,4650828552","0,3005749512","9,917326813","9,932774963"
"12,01565067","0,4715194702","0,2951861572","9,855056305","9,870744666"
"12,02560367","0,4728666687","0,2956352234","9,785900116","9,801777602"
"12,03555667","0,4620890808","0,2972817993","9,727671204","9,743176578"
"12,04550967","0,4318519592","0,2811154175","9,679172058","9,692878506"
"12,05546367","0,4385879517","0,2788700867","9,63681015","9,650815395"
"12,06541667","0,4308041382","0,2800675964","9,573940887","9,587719968"
"12,07536967","0,4173321533","0,2659968567","9,522597656","9,535448945"
"12,08532267","0,40251297","0,2661465454","9,484127655","9,496395529"
"12,09527567","0,4053570557","0,265847168","9,447453918","9,459882378"
"12,10522867","0,400866394","0,2618055725","9,399852905","9,412038603"
"12,11518167","0,3959266663","0,2535726929","9,347910919","9,359727324"
"12,12513567","0,3839515686","0,2537223816","9,305998077","9,317370556"
"12,13508867","0,3838018799","0,2457888794","9,266031189","9,277232888"
"12,14504167","0,3758683777","0,2344125366","9,223519592","9,234150743"
"12,15499467","0,3543132019","0,2231858826","9,191935272","9,201468569"
"12,16494767","0,3607498169","0,2180964661","9,1570578","9,166755918"
"12,17490067","0,3490740967","0,204175415","9,126521301","9,135476528"
"12,18485467","0,3300636292","0,2070195007","9,098080444","9,106418991"
"12,19480767","0,3273692322","0,2073188782","9,071435852","9,079708153"
"12,20476067","0,3285667419","0,2049238586","9,06230484","9,070574343"
"12,21471367","0,3058140564","0,203127594","9,026229858","9,033692961"
"12,22466667","0,3155438232","0,1957928467","9,010362854","9,018012059"
"12,23461967","0,3119512939","0,1863624573","9,002279663","9,00961063"
"12,24457367","0,3031196594","0,1739382935","8,976682892","8,983483278"
"12,25452667","0,3065625","0,1700463867","8,98042511","8,987264962"
"12,26447967","0,3162922668","0,160765686","8,971743164","8,978756139"
"12,27443267","0,3080593872","0,1511856079","8,965456238","8,972021134"
"12,28438567","0,3047662354","0,1538800049","8,975635071","8,982125942"
"12,29433867","0,3134481812","0,1547781372","8,98162262","8,988423161"
"12,30429267","0,3210823059","0,1508862305","8,982371063","8,989374306"
"12,31424567","0,3216810608","0,1435514832","8,998537445","9,005429578"
"12,32419867","0,3329077148","0,1472937012","9,005722504","9,01307721"
"12,33415167","0,3486250305","0,1357676697","9,026379547","9,034129731"
"12,34410467","0,3635939026","0,1338217163","9,034911804","9,043215141"
"12,35405767","0,3806584167","0,1270857239","9,059311066","9,068195443"
"12,36401167","0,4014651489","0,1251397705","9,072184296","9,081925023"
"12,37396467","0,4049079895","0,1202000427","9,085805969","9,095618101"
"12,38391767","0,4165837097","0,1073268127","9,128916321","9,13904668"
"12,39387067","0,4427792358","0,107177124","9,168134766","9,17944636"
"12,40382367","0,4424798584","0,09071136475","9,204658813","9,215734417"
"12,41377667","0,450712738","0,09086105347","9,227710876","9,23915828"
"12,42373067","0,4664300537","0,07918533325","9,257498932","9,269580022"
"12,43368367","0,4739144897","0,07349716187","9,292376404","9,304743737"
"12,44363667","0,4827461243","0,07110214233","9,355545044","9,36826144"
"12,45358967","0,4878355408","0,06960525513","9,387279053","9,400204063"
"12,46354267","0,4836442566","0,0722996521","9,434281311","9,446946748"
"12,47349567","0,5035528564","0,06316864014","9,491911469","9,505468904"
"12,48344867","0,505947876","0,05478607178","9,552086334","9,565633178"
"12,49340267","0,5049000549","0,05418731689","9,631571045","9,644947959"
"12,50335567","0,5093907166","0,03876937866","9,682016144","9,695484443"
"12,51330867","0,5001100159","0,02634521484","9,748627625","9,761482708"
"12,52326167","0,5057981873","0,02514770508","9,818981323","9,832032264"
"12,53321467","0,4954696655","0,005388793945","9,901759186","9,914149192"
"12,54316767","0,493074646","0,007484436035","9,972262573","9,984447879"
"12,55312167","0,4813989258","-0,007035369873","10,05354355","10,06506494"
"12,56307467","0,4808001709","-0,01646575928","10,13272888","10,14414287"
"12,57302767","0,4665797424","-0,0288899231","10,20233414","10,21303839"
"12,58298067","0,4601431274","-0,04580474854","10,28062134","10,29101574"
"12,59293367","0,4391867065","-0,05418731689","10,36100418","10,37044979"
"12,60288667","0,4270619202","-0,05613327026","10,43150757","10,44039669"
"12,61284067","0,4189787292","-0,07439529419","10,50889664","10,51750856"
"12,62279317","0,4067042542","-0,07993377686","10,57910065","10,58721721"
"12,63274617","0,4061054993","-0,07559280396","10,65229843","10,66030477"
"12,64269917","0,3921844482","-0,08517288208","10,71262299","10,72013779"
"12,65265217","0,3808081055","-0,09699829102","10,77624069","10,78340331"
"12,66260517","0,379460907","-0,1043330383","10,82713486","10,83428471"
"12,67255917","0,3739224243","-0,1043330383","10,89209976","10,89901558"
"12,68251217","0,3538641357","-0,117355957","10,93326416","10,93961871"
"12,69246517","0,3442840576","-0,1219963074","10,98131424","10,98738718"
"12,70241817","0,3372486877","-0,1296304321","11,0269693","11,03288687"
"12,71237117","0,322130127","-0,1284329224","11,06858276","11,07401405"
"12,72232417","0,3112028503","-0,1327738953","11,11019623","11,11534688"
"12,73227717","0,3068618774","-0,1278341675","11,15031281","11,15526698"
"12,74223117","0,296383667","-0,1323248291","11,18668716","11,19139504"
"12,75218417","0,2935395813","-0,1344204712","11,22874969","11,23339014"
"12,76213717","0,290994873","-0,1374142456","11,25554398","11,26014347"
"12,77209017","0,2924917603","-0,1537303162","11,28293701","11,28777445"
"12,78204317","0,2960842896","-0,1592687988","11,3255983","11,33058733"
"12,79199617","0,2998265076","-0,163460083","11,3561348","11,36126809"
"12,80195017","0,3020718384","-0,1754351807","11,38113281","11,38649239"
"12,81190317","0,3065625","-0,1737886047","11,39475449","11,40020232"
"12,82185617","0,3251239014","-0,1757345581","11,41571091","11,42169181"
"12,83180917","0,3279679871","-0,1772314453","11,434422","11,44049738"
"12,84176217","0,333356781","-0,1860630798","11,43891266","11,44528152"
"12,85171517","0,3423381042","-0,1761836243","11,45762375","11,46409081"
"12,86166917","0,3613485718","-0,1779798889","11,47603546","11,48310235"
"12,87162217","0,3650907898","-0,177381134","11,47438889","11,48156591"
"12,88157517","0,3689826965","-0,1715432739","11,47364044","11,48085364"
"12,89152817","0,3986210632","-0,1703457642","11,46914978","11,47733911"
"12,90148117","0,4064048767","-0,1675016785","11,44430145","11,45274017"
"12,91143417","0,4059558105","-0,1691482544","11,45238464","11,46082568"
"12,92138717","0,4192781067","-0,1802252197","11,43936172","11,44846155"
"12,93134117","0,4348457336","-0,1850152588","11,41062149","11,42040298"
"12,94129417","0,4406835938","-0,1869612122","11,39565262","11,40570275"
"12,95124717","0,4402345276","-0,1818717957","11,35808075","11,36806413"
"12,96120017","0,4456233215","-0,1857637024","11,34505783","11,35532586"
"12,97115317","0,4502636719","-0,1847158813","11,31332382","11,32378705"
"12,98110617","0,4391867065","-0,1812730408","11,27530289","11,28530904"
"12,99106017","0,413739624","-0,1878593445","11,24521545","11,25439213"
"13,00101317","0,4141886902","-0,1896556091","11,21872055","11,22796564"
"13,01096617","0,4013154602","-0,1895059204","11,1889325","11,19773088"
"13,02091917","0,38963974","-0,1749861145","11,16258728","11,1707562"
"13,03087217","0,3667373657","-0,1784289551","11,11423782","11,12171819"
"13,04082517","0,3508703613","-0,1896556091","11,08504852","11,0922216"
"13,05077917","0,3451821899","-0,1923500061","11,05271576","11,05977735"
"13,06073217","0,3297642517","-0,1817221069","10,9911937","10,99764094"
"13,07068517","0,3171903992","-0,1754351807","10,92997101","10,93597977"
"13,08063817","0,3131488037","-0,1731898499","10,87802902","10,88391346"
"13,09059117","0,2905458069","-0,1642085266","10,83656525","10,84170317"
"13,10054417","0,2710862732","-0,1636097717","10,77728851","10,78193877"
"13,11049717","0,2689906311","-0,1517843628","10,71441925","10,71887001"
"13,12045117","0,2478845215","-0,1389111328","10,64945435","10,65324462"
"13,13040417","0,2139051819","-0,1359173584","10,58478882","10,58782241"
"13,14035717","0,2088157654","-0,1215472412","10,50455566","10,50733398"
"13,15031017","0,2134561157","-0,122744751","10,43075912","10,43366502"
"13,16026317","0,2046244812","-0,1199006653","10,35711227","10,35982732"
"13,17021617","0,1776805115","-0,1118174744","10,27613068","10,27827491"
"13,18017017","0,1666035461","-0,1082249451","10,19739441","10,19932949"
"13,19012317","0,1678010559","-0,1053808594","10,12524445","10,12718309"
"13,20007617","0,1580712891","-0,09819580078","10,04111938","10,04284359"
"13,21002917","0,1514849854","-0,09684860229","9,974058838","9,975679278"
"13,21998217","0,1348695374","-0,0983454895","9,902507629","9,903914326"
"13,22993517","0,1353186035","-0,09340576172","9,820927277","9,822303616"
"13,23988917","0,1428030396","-0,08412506104","9,749525757","9,750934428"
"13,24984217","0,1568737793","-0,08292755127","9,690249023","9,691873529"
"13,25979517","0,157023468","-0,07963439941","9,626930695","9,628540523"
"13,26974817","0,1556762695","-0,0687071228","9,573192444","9,574704661"
"13,27970117","0,1664538574","-0,06242019653","9,519454193","9,521113974"
"13,28965417","0,1676513672","-0,06212081909","9,458530884","9,460220529"
"13,29960717","0,1643582153","-0,0556842041","9,417216797","9,41881556"
"13,30956117","0,1642085266","-0,05433700562","9,375004578","9,376600012"
"13,31951417","0,169896698","-0,05298980713","9,334588623","9,336284998"
"13,32946717","0,1715432739","-0,0477507019","9,287137299","9,288844192"
"13,33942017","0,1681004333","-0,04236190796","9,258397064","9,260019897"
"13,34937317","0,1743873596","-0,02933898926","9,224717102","9,226411943"
"13,35932617","0,1752854919","-0,01616638184","9,183403015","9,185089945"
"13,36928017","0,1669029236","-0,003742218018","9,170230408","9,171749905"
"13,37923317","0,1817221069","0,004790039063","9,12427597","9,126086667"
"13,38918617","0,1797761536","0,007783813477","9,105265503","9,107043424"
"13,39913917","0,1719923401","0,01287322998","9,079369354","9,081007376"
"13,40909217","0,1796264648","0,02350112915","9,063352661","9,065162957"
"13,41904517","0,1752854919","0,02664459229","9,036708069","9,038447193"
"13,42899917","0,1923500061","0,01901046753","9,023086395","9,025156399"
"13,43895217","0,205821991","0,01811233521","9,011560364","9,013928718"
"13,44890517","0,205821991","0,01960922241","8,996591492","8,998966923"
"13,45885817","0,2303709412","0,01556762695","9,005572815","9,008532336"
"13,46881117","0,2404000854","0,02395019531","8,990603943","8,993849291"
"13,47876417","0,2445913696","0,03592529297","8,984317017","8,987717609"
"13,48871717","0,2514770508","0,04221221924","8,981023865","8,984643134"
"13,49867117","0,2624043274","0,04655319214","8,993747406","8,997695018"
"13,50862417","0,2559677124","0,06271957397","8,992998962","8,996859649"
"13,51857717","0,2555186462","0,06062393188","8,987759857","8,991595648"
"13,52853017","0,2495310974","0,07125183105","9,018745422","9,022478129"
"13,53848317","0,2471360779","0,06735992432","9,032816162","9,036447389"
"13,54843617","0,2406994629","0,07873626709","9,055119781","9,058660491"
"13,55839017","0,2236349487","0,07289840698","9,080267487","9,083313514"
"13,56834317","0,2252815247","0,08128097534","9,109456787","9,11260453"
"13,57829617","0,226179657","0,09295669556","9,132957916","9,136231088"
"13,58824917","0,220790863","0,09131011963","9,167236633","9,170349701"
"13,59820217","0,2091151428","0,09520202637","9,202263794","9,205131803"
"13,60815517","0,2008822632","0,112565918","9,23085434","9,233726041"
"13,61810817","0,1968406677","0,1116677856","9,276509399","9,279269507"
"13,62806267","0,1847158813","0,1157093811","9,297016754","9,29957145"
"13,63801567","0,1791773987","0,132923584","9,350455627","9,353116789"
"13,64796867","0,1781295776","0,136665802","9,391320648","9,394004003"
"13,65792167","0,1739382935","0,1321751404","9,440867615","9,443394841"
"13,66787467","0,1610650635","0,1345701599","9,482032013","9,4843546"
"13,67782767","0,162412262","0,1425036621","9,516909485","9,51936191"
"13,68778167","0,1707948303","0,1451980591","9,583520966","9,58614247"
"13,69773467","0,160765686","0,1571731567","9,632469177","9,635092706"
"13,70768767","0,1619631958","0,1706451416","9,686955872","9,68981248"
"13,71764067","0,1609153748","0,1595681763","9,750872955","9,753505993"
"13,72759367","0,1460961914","0,159717865","9,803114319","9,805503773"
"13,73754667","0,1682501221","0,150586853","9,871222687","9,873804831"
"13,74750067","0,1625619507","0,1538800049","9,926158447","9,928682036"
"13,75745367","0,1660047913","0,1606159973","9,984686737","9,987358226"
"13,76740667","0,1772314453","0,1787283325","10,07300308","10,07614737"
"13,77735967","0,1842668152","0,1817221069","10,13901581","10,14231821"
"13,78731267","0,1919009399","0,187559967","10,21071671","10,21424203"
"13,79726567","0,2005828857","0,2097138977","10,28750702","10,2915992"
"13,80721967","0,2109114075","0,219743042","10,36354889","10,36802374"
"13,81717267","0,2061213684","0,230969696","10,44872177","10,45330664"
"13,82712567","0,2127076721","0,2345622253","10,52416489","10,52892732"
"13,83707867","0,2240840149","0,2399510193","10,5903273","10,59541516"
"13,84703167","0,2329156494","0,2486329651","10,64631088","10,65176058"
"13,85698467","0,2311193848","0,243842926","10,72250244","10,72776464"
"13,86693767","0,2549198914","0,252973938","10,79555054","10,80152264"
"13,87689167","0,2546205139","0,2547702026","10,84674408","10,852723"
"13,88684467","0,2680924988","0,2513273621","10,92652817","10,93270583"
"13,89679767","0,2745291138","0,2630030823","10,97427887","10,98086215"
"13,90675067","0,2878514099","0,2656974792","11,02307739","11,03003576"
"13,91670367","0,2924917603","0,2652484131","11,07651627","11,08355181"
"13,92665667","0,2923420715","0,2719844055","11,11348938","11,1206603"
"13,93661067","0,2923420715","0,2818638611","11,15555191","11,1629409"
"13,94656367","0,3023712158","0,28081604","11,19222565","11,1998304"
"13,95651667","0,3104544067","0,2826123047","11,22261246","11,23046224"
"13,96646967","0,3203338623","0,2932402039","11,26198059","11,27035095"
"13,97642267","0,3394940186","0,2905458069","11,27979355","11,288641"
"13,98637567","0,3514691162","0,2956352234","11,3029953","11,3123222"
"13,99632867","0,3606001282","0,2980302429","11,33398087","11,34363155"
"14,00628267","0,3754193115","0,2999761963","11,350746","11,3609137"
"14,01623567","0,37676651","0,3041674805","11,37125336","11,38155849"
"14,02618867","0,3849993896","0,3043171692","11,3866713","11,39724162"
"14,03614167","0,3902384949","0,3100053406","11,41032211","11,42120134"
"14,04609467","0,3885919189","0,3088078308","11,4131662","11,42395416"
"14,05604767","0,4023632813","0,3097059631","11,42424316","11,43552123"
"14,06600167","0,4098477173","0,3146456909","11,43023071","11,4419033"
"14,07595467","0,4110452271","0,310304718","11,44055923","11,45214577"
"14,08590767","0,3962260437","0,3158432007","11,43472137","11,44594273"
"14,09586067","0,3978726196","0,3104544067","11,43427231","11,44540378"
"14,10581367","0,384250946","0,3098556519","11,43741577","11,44806267"
"14,11576667","0,380508728","0,3044668579","11,42184814","11,43223959"
"14,12571967","0,3679348755","0,2986289978","11,41526184","11,42509336"
"14,13567367","0,3623963928","0,2977308655","11,39355698","11,40320636"
"14,14562667","0,3442840576","0,2971321106","11,38472534","11,3938049"
"14,15557967","0,3195854187","0,2927911377","11,36017639","11,36844181"
"14,16553267","0,3112028503","0,2900967407","11,33532806","11,34330929"
"14,17548567","0,287252655","0,2811154175","11,30000153","11,30714705"
"14,18543867","0,2649490356","0,2784210205","11,27859604","11,28514266"
"14,19539267","0,2517764282","0,2728825378","11,23219254","11,23832752"
"14,20534567","0,2468367004","0,2692900085","11,20524857","11,21120158"
"14,21529867","0,2368075562","0,2716850281","11,15210907","11,15793114"
"14,22525167","0,2324665833","0,2613565063","11,1211235","11,12662285"
"14,23520467","0,2344125366","0,2535726929","11,06319397","11,06858208"
"14,24515767","0,2414479065","0,2661465454","11,02592148","11,03177572"
"14,25511167","0,259410553","0,2559677124","10,9805658","10,98661178"
"14,26506467","0,2664459229","0,2532733154","10,93550949","10,94168674"
"14,27501767","0,2794688416","0,2511776733","10,8876091","10,89409129"
"14,28497067","0,2757266235","0,2516267395","10,83761307","10,84403975"
"14,29492367","0,2796185303","0,2423460388","10,79495178","10,80129169"
"14,30487667","0,2914439392","0,2300715637","10,73672287","10,74314156"
"14,31482967","0,2933898926","0,22348526","10,66906357","10,67543632"
"14,32478367","0,2995271301","0,2228865051","10,61697189","10,62353459"
"14,33473667","0,3113525391","0,2161505127","10,55679703","10,56359905"
"14,34468967","0,3270698547","0,2065704346","10,4934787","10,50060671"
"14,35464267","0,3288661194","0,2164498901","10,42746597","10,43489579"
"14,36459567","0,322130127","0,2002835083","10,36055511","10,3674965"
"14,37454867","0,3302133179","0,1880090332","10,30726593","10,31426775"
"14,38450267","0,3376977539","0,1878593445","10,22867935","10,23597637"
"14,39445567","0,3484753418","0,173638916","10,15787659","10,16533533"
"14,40440867","0,3556604004","0,1666035461","10,08991791","10,09755884"
"14,41436167","0,3504212952","0,1718426514","10,02195923","10,02955591"
"14,42431467","0,3710783386","0,1643582153","9,954000549","9,96227081"
"14,43426767","0,3763174438","0,1643582153","9,872719574","9,881256005"
"14,44422067","0,3882925415","0,1648072815","9,791588287","9,800670065"
"14,45417467","0,3992198181","0,1564247131","9,721983032","9,731433565"
"14,46412767","0,3891906738","0,1450483704","9,661059723","9,669983629"
"14,47408067","0,390687561","0,1357676697","9,592202911","9,601115889"
"14,48403367","0,3948788452","0,1297801208","9,544152832","9,55319975"
"14,49398667","0,3980223083","0,1164578247","9,477541351","9,486610261"
"14,50393967","0,4047583008","0,1043330383","9,431736603","9,440994122"
"14,51389367","0,4080514526","0,1038839722","9,377998352","9,387446456"
"14,52384667","0,4019142151","0,1011895752","9,322463837","9,331672216"
"14,53379967","0,4144880676","0,1046324158","9,274413757","9,284260813"
"14,54375267","0,4270619202","0,1004411316","9,239536285","9,249946004"
"14,55370567","0,4198768616","0,1062789917","9,191935272","9,202133766"
"14,56365867","0,4125421143","0,1064286804","9,152567139","9,16247801"
"14,57361167","0,4059558105","0,09550140381","9,127569122","9,137091371"
"14,58356567","0,4077520752","0,09340576172","9,106463013","9,116065763"
"14,59351867","0,3941304016","0,08696914673","9,088200989","9,097158876"
"14,60347167","0,3981719971","0,07649093628","9,056916046","9,065986988"
"14,61342467","0,3776646423","0,07858657837","9,03311554","9,041348505"
"14,62337704","0,380508728","0,07454498291","9,025032349","9,033357778"
"14,63333004","0,3707789612","0,0672102356","9,011111298","9,018986699"
"14,64328404","0,369282074","0,05658233643","9,004075928","9,011823019"
"14,65323704","0,3754193115","0,05014572144","8,994196472","9,002167763"
"14,66319004","0,3643423462","0,05478607178","8,982670441","8,990223307"
"14,67314304","0,3589535522","0,03861968994","8,979526978","8,986781619"
"14,68309604","0,3523672485","0,03308120728","8,995543671","9,002503151"
"14,69304904","0,3385958862","0,02664459229","8,991651764","8,998064156"
"14,70300204","0,3382965088","0,01990859985","9,009315033","9,015686233"
"14,71295604","0,3165916443","0,01437011719","9,011260986","9,016832112"
"14,72290904","0,3138972473","0,01422042847","9,026828613","9,032295861"
"14,73286204","0,3011737061","0,004790039063","9,036408691","9,041427464"
"14,74281504","0,2924917603","0,007783813477","9,048832855","9,053562175"
"14,75276804","0,2968327332","0,007334747314","9,069789276","9,074648257"
"14,76272104","0,2920426941","0,001646575928","9,098828888","9,103514639"
"14,77267504","0,2881507874","0,005987548828","9,122330017","9,126881815"
"14,78262804","0,2838098145","-0,003891906738","9,153914337","9,158313756"
"14,79258104","0,2942880249","-0,005388793945","9,180409241","9,185126472"
"14,80253404","0,3085084534","-0,01781295776","9,219028931","9,224206697"
"14,81248704","0,3091072083","-0,01511856079","9,251960449","9,257134977"
"14,82244004","0,3164419556","-0,03023712158","9,295968933","9,301402486"
"14,83239304","0,3297642517","-0,03068618774","9,332043915","9,337918919"
"14,84234704","0,3405418396","-0,04176315308","9,382638702","9,388909517"
"14,85230004","0,3474275208","-0,04610412598","9,43323349","9,439741816"
"14,86225304","0,3641926575","-0,05298980713","9,473200378","9,480346493"
"14,87220604","0,3697311401","-0,04610412598","9,522597656","9,529884198"
"14,88215904","0,3749702454","-0,05418731689","9,570048981","9,577545429"
"14,89211204","0,3920347595","-0,05628295898","9,623637543","9,631783769"
"14,90206504","0,403560791","-0,06661148071","9,671088867","9,679734412"
"14,91201904","0,4225712585","-0,07394622803","9,726623383","9,736079136"
"14,92197204","0,4204756165","-0,08352630615","9,780361633","9,789752299"
"14,93192504","0,426612854","-0,0975970459","9,837542725","9,84727224"
"14,94187804","0,4400848389","-0,100740509","9,899663544","9,909952653"
"14,95183104","0,4511618042","-0,1070274353","9,956545258","9,96733642"
"14,96178404","0,4516108704","-0,1088237","10,01447479","10,02524316"
"14,97173804","0,4586462402","-0,1058299255","10,07390121","10,08489177"
"14,98169104","0,4602928162","-0,1020877075","10,13168106","10,14264524"
"14,99164404","0,4667294312","-0,09774673462","10,19155655","10,20270629"
"15,00159704","0,4637356567","-0,1101708984","10,25532394","10,26639458"
"15,01155004","0,4661306763","-0,1074765015","10,32433044","10,33540653"
"15,02150304","0,450712738","-0,1062789917","10,38884628","10,39916171"
"15,03145604","0,4448748779","-0,1139131165","10,45201492","10,46209854"
"15,04141004","0,4547543335","-0,1113684082","10,51907547","10,52948969"
"15,05136304","0,4511618042","-0,1032852173","10,58179504","10,59191206"
"15,06131604","0,4487667847","-0,1113684082","10,64526306","10,6553001"
"15,07126904","0,4478686523","-0,112565918","10,70214478","10,71210344"
"15,08122204","0,4481680298","-0,1225950623","10,7695047","10,77952298"
"15,09117504","0,4495152283","-0,123792572","10,83357147","10,84359993"
"15,10112904","0,4472698975","-0,1333726501","10,89329727","10,90329143"
"15,11108204","0,4484674072","-0,1336720276","10,95092743","10,96092162"
"15,12103504","0,4393363953","-0,1383123779","10,99972595","11,009365"
"15,13098804","0,4444258118","-0,1483415222","11,05555984","11,06548341"
"15,14094104","0,4346960449","-0,1477427673","11,10360992","11,11309776"
"15,15089404","0,4219725037","-0,1525328064","11,14926498","11,15829005"
"15,16084804","0,407303009","-0,1568737793","11,19701569","11,20551942"
"15,17080104","0,408949585","-0,1600172424","11,23339005","11,24197034"
"15,18075404","0,3924838257","-0,1513352966","11,26901596","11,27686422"
"15,19070704","0,3835025024","-0,1384620667","11,29191833","11,29927722"
"15,20066004","0,3835025024","-0,1429527283","11,3255983","11,33299106"
"15,21061304","0,3890409851","-0,1450483704","11,34041748","11,34801571"
"15,22056604","0,3812571716","-0,1320254517","11,36915771","11,37631464"
"15,23052004","0,3815565491","-0,1448986816","11,38367752","11,39099183"
"15,24047304","0,3749702454","-0,1408570862","11,39744888","11,40448528"
"15,25042604","0,3667373657","-0,135617981","11,40583145","11,41253169"
"15,26037904","0,3694317627","-0,1463955688","11,39640106","11,40332709"
"15,27033204","0,3604504395","-0,145796814","11,39415573","11,40078796"
"15,28028504","0,3540138245","-0,1504371643","11,39879608","11,40528427"
"15,29023804","0,3477268982","-0,1438508606","11,40283768","11,40904528"
"15,30019204","0,3432362366","-0,1399589539","11,39924515","11,40527025"
"15,31014504","0,3372486877","-0,1375639343","11,38697067","11,39279428"
"15,32009804","0,3180885315","-0,135617981","11,36077515","11,36603645"
"15,33005104","0,3212319946","-0,1287322998","11,36601425","11,37128146"
"15,34000404","0,3165916443","-0,1338217163","11,3586795","11,36387868"
"15,34995704","0,3373983765","-0,1317260742","11,33682495","11,34260946"
"15,35991004","0,3365002441","-0,1341210938","11,3043425","11,31014501"
"15,36986404","0,3429368591","-0,1390608215","11,28188919","11,28795674"
"15,37981704","0,3465293884","-0,1248403931","11,25195145","11,25797846"
"15,38977004","0,3656895447","-0,135617981","11,22590561","11,23267901"
"15,39972304","0,3619473267","-0,1314266968","11,18803436","11,19465907"
"15,40967604","0,3653901672","-0,12753479","11,15151031","11,15822376"
"15,41962904","0,3617976379","-0,1182540894","11,11768066","11,12419457"
"15,42958304","0,3577560425","-0,1020877075","11,08819199","11,09443161"
"15,43953604","0,36389328","-0,09355545044","11,04373444","11,05012404"
"15,44948904","0,3667373657","-0,09340576172","10,98805023","10,99456542"
"15,45944204","0,3547622681","-0,08637039185","10,9314679","10,93756401"
"15,46939504","0,3528163147","-0,0809815979","10,89494385","10,90095587"
"15,47934804","0,3695814514","-0,07259902954","10,83970871","10,84625032"
"15,48930104","0,3614982605","-0,06167175293","10,78896423","10,79519493"
"15,49925504","0,3504212952","-0,06481521606","10,73268127","10,73859597"
"15,50920804","0,3662882996","-0,05673202515","10,6858287","10,69225518"
"15,51916104","0,3674858093","-0,04730163574","10,62625259","10,63271026"
"15,52911404","0,3445834351","-0,04834945679","10,57326279","10,57898678"
"15,53906704","0,3388952637","-0,03861968994","10,49362839","10,49917036"
"15,54902004","0,3278182983","-0,02020797729","10,44872177","10,45388253"
"15,55897404","0,3135978699","-0,02469863892","10,41294617","10,41769656"
"15,56892704","0,3107537842","-0,01930984497","10,34049683","10,3451832"
"15,57888004","0,3125500488","-0,01167572021","10,28795609","10,29270928"
"15,58883304","0,3014730835","-0,01257385254","10,22239243","10,22684463"
"15,59878604","0,2905458069","-0,006586303711","10,16685791","10,17101077"
"15,60873904","0,2812651062","0,0004490661621","10,09859985","10,10251599"
"15,61869204","0,2680924988","-0,004939727783","10,0369281","10,04050913"
"15,62864679","0,2547702026","0,005538482666","9,980345764","9,983598555"
"15,63859979","0,2498304749","0,02739303589","9,921518097","9,924700852"
"15,64855279","0,2433938599","0,03667373657","9,852361908","9,855436099"
"15,65850579","0,2260299683","0,04400848389","9,771829376","9,774542222"
"15,66845879","0,2146536255","0,04041595459","9,717791748","9,720246195"
"15,67841179","0,2007325745","0,05688171387","9,657018127","9,659271619"
"15,68836579","0,1996847534","0,06750961304","9,598489838","9,600804066"
"15,69831879","0,1916015625","0,05957611084","9,551487579","9,553594897"
"15,70827179","0,1769320679","0,06735992432","9,487271118","9,489159899"
"15,71822479","0,1721420288","0,07454498291","9,422006836","9,423874079"
"15,72817779","0,1573228455","0,07888595581","9,375303955","9,376955675"
"15,73813079","0,1401086426","0,09654922485","9,318871307","9,320424595"
"15,74808379","0,1440005493","0,09849517822","9,266929321","9,268571438"
"15,75803779","0,1448986816","0,1019380188","9,216633911","9,21833649"
"15,76799079","0,1472937012","0,1044827271","9,176367645","9,178144433"
"15,77794379","0,1396595764","0,1100212097","9,144633636","9,14636178"
"15,78789679","0,1362167358","0,1178050232","9,102870483","9,104651781"
"15,79784979","0,1224453735","0,1178050232","9,066196747","9,067788834"
"15,80780279","0,1246907043","0,1170565796","9,047635345","9,049251646"
"15,81775579","0,1261875916","0,1209484863","9,028924255","9,030615984"
"15,82770979","0,1052311707","0,1213975525","9,000932465","9,002366144"
"15,83766279","0,1097218323","0,1212478638","8,988957367","8,99044462"
"15,84761579","0,1116677856","0,1258882141","8,987610168","8,989185396"
"15,85756879","0,1119671631","0,1299298096","8,974437561","8,976076422"
"15,86752179","0,1160087585","0,1299298096","8,973539429","8,975229783"
"15,87747479","0,119002533","0,1386117554","8,976084137","8,977943041"
"15,88742879","0,1354682922","0,1398092651","8,982820129","8,984929369"
"15,89738179","0,144150238","0,1462458801","8,988059235","8,99040466"
"15,90733479","0,152233429","0,1519340515","8,993448029","8,996019476"
"15,91728779","0,1660047913","0,1537303162","8,982670441","8,985519398"
"15,92724079","0,1610650635","0,1633103943","9,014254761","9,017172569"
"15,93719379","0,1618135071","0,170944519","9,044192505","9,047255037"
"15,94714679","0,1740879822","0,1727407837","9,065148926","9,06846575"
"15,95710079","0,1678010559","0,1848655701","9,086255035","9,08968443"
"15,96705379","0,1643582153","0,1874102783","9,091494141","9,094910772"
"15,97700679","0,1610650635","0,196690979","9,130263519","9,133802123"
"15,98695979","0,1657054138","0,1922003174","9,159003754","9,162518704"
"15,99691279","0,1749861145","0,1919009399","9,189091187","9,192760355"
"16,00686579","0,1752854919","0,2080673218","9,226213989","9,230224352"
"16,01681879","0,1794767761","0,2086660767","9,256301422","9,260392511"
"16,02677279","0,1927990723","0,2010319519","9,301806793","9,305976303"
"16,03672579","0,1904040527","0,2154020691","9,343270569","9,347692586"
"16,04667879","0,2201921082","0,212258606","9,385782166","9,390763821"
"16,05663179","0,2194436646","0,2116598511","9,428144073","9,433072463"
"16,06658479","0,227227478","0,2227368164","9,482181702","9,487518845"
"16,07653779","0,2306703186","0,2219883728","9,528435516","9,533811988"
"16,08649179","0,2275268555","0,2216889954","9,572743378","9,578012855"
"16,09644479","0,2471360779","0,2351609802","9,627828827","9,63387071"
"16,10639779","0,2293231201","0,2456391907","9,686357117","9,692184578"
"16,11635079","0,2327659607","0,252973938","9,733509064","9,739577737"
"16,12630379","0,2198927307","0,2553689575","9,793833618","9,799629741"
"16,13625679","0,1992356873","0,2547702026","9,845625916","9,850936625"
"16,14620979","0,1919009399","0,259410553","9,908046112","9,913299025"
"16,15616379","0,1863624573","0,259410553","9,957293701","9,962415503"
"16,16611679","0,1924996948","0,2561174011","10,02240829","10,02752812"
"16,17606979","0,1752854919","0,2592608643","10,07839188","10,08324968"
"16,18602279","0,1781295776","0,2673440552","10,13751892","10,14260779"
"16,19597579","0,1908531189","0,2698887634","10,18901184","10,19437233"
"16,20592879","0,21061203","0,2700384521","10,25891647","10,2646308"
"16,21588279","0,2040257263","0,2758763123","10,30951126","10,31521966"
