Time (s),Linear Acceleration x (m/s^2),Linear Acceleration y (m/s^2),Linear Acceleration z (m/s^2),Absolute acceleration (m/s^2)
"0,002807041863","0,6202143104","-0,2173277765","-0,3985666841","0,7686042903"
"0,01276104175","0,6274985524","-0,3324935858","-0,9269357085","1,167696975"
"0,02271504165","-0,1463509838","0,1325837877","-0,6522995907","0,6815363727"
"0,03266904177","0,2854729088","0,429155735","0,3805210072","0,6406759426"
"0,04262304166","0,1284277695","0,3683543401","0,3755228072","0,5414757526"
"0,05257704179","-0,8358694178","-0,01146953277","0,7894290769","1,14978585"
"0,06253104168","-1,20525126","-0,6926947146","0,7829363286","1,595445349"
"0,0724850418","-0,439092274","-0,4299747106","0,3602142119","0,7123444078"
"0,0824390417","0,2503898341","0,03243742883","0,0949967891","0,2697622022"
"0,09239204181","0,07399779316","-0,3042000787","-0,1731407332","0,3577584028"
"0,1023460417","-0,1739074494","-0,544330169","-0,325219211","0,6575003186"
"0,1123000418","-0,1501462653","-0,415711963","-0,2499503428","0,5077750594"
"0,1222540417","-0,103339103","-0,30750741","-0,2302183288","0,3977942387"
"0,1322080418","-0,1185145463","-0,2899378426","-0,33279194","0,4570121722"
"0,1421620417","-0,1672721022","-0,2515109646","-0,4754675102","0,563300164"
"0,1521160419","-0,1322113383","-0,1510209357","-0,5152648294","0,5529783046"
"0,1620700418","-0,04148431398","-0,07112823553","-0,5132381845","0,5198015084"
"0,1720240416","-0,05575870128","-0,07656790026","-0,5363335168","0,5446331953"
"0,1819780418","-0,03827589193","-0,09074425533","-0,4941376698","0,5038567262"
"0,1919320417","0,02687806064","-0,09534243263","-0,4598449194","0,4703934093"
"0,2018860418","0,05146779517","-0,1449706024","-0,3224394447","0,3572570573"
"0,2118400417","0,02317843594","-0,177949191","-0,1689851171","0,2464936597"
"0,2217940418","0,06277778118","-0,1998962764","-0,03069963634","0,211759389"
"0,2317480417","0,1693112455","-0,2243594187","0,1824097395","0,3350772444"
"0,2417010418","0,1688434317","-0,126953723","0,3493910158","0,4082884203"
"0,2516550417","0,0815196331","-0,08886517949","0,3834259039","0,4019426508"
"0,2616090418","-0,1099270239","0,01155365959","0,2281437367","0,2535093731"
"0,2715630417","-0,2638799088","0,1474595428","0,02053659081","0,3029829609"
"0,2815170418","-0,3512146892","0,3012704775","-0,1133564615","0,4764088012"
"0,2914710417","-0,3773022977","0,3516382469","-0,1916062403","0,5501994473"
"0,3014250419","-0,3711254818","0,2733173514","-0,177370609","0,4938591204"
"0,3113790418","-0,330499064","0,1630414955","0,02981612206","0,3697312019"
"0,3213330416","-0,2920635613","0,03068823427","0,18962228","0,3495704516"
"0,3312870418","-0,2340818035","-0,1522688046","0,2668979126","0,3862830249"
"0,3412410417","-0,07471007539","-0,3034892765","0,3473415667","0,4672617043"
"0,3511950418","0,1001975585","-0,3527302144","0,4014002448","0,5436729821"
"0,3611490417","0,1846964394","-0,3735463022","0,4558015698","0,6175796998"
"0,3711030418","0,1300272388","-0,3982515192","0,4283079618","0,5991319267"
"0,3810560417","0,06163627678","-0,4052878392","0,3334363031","0,528428833"
"0,3910100418","0,01458821605","-0,3727192135","0,1875301462","0,4174924956"
"0,4009640417","0,01755446972","-0,317990883","-0,06901527107","0,3258672563"
"0,4109180418","-0,04857601355","-0,2484712896","-0,3718297058","0,4498387944"
"0,4208720417","-0,1054963145","-0,1730283936","-0,5759583431","0,6105704795"
"0,4308260418","-0,0771205535","-0,08958409466","-0,7187730771","0,7284281888"
"0,4407800417","-0,03128135664","-0,08089498602","-0,7502574098","0,7552540652"
"0,4507340419","-0,03585853421","-0,1426247726","-0,703697201","0,7189001398"
"0,4606886667","0,006802624994","-0,1599623517","-0,5659537572","0,588164845"
"0,4706426668","0,03892018658","-0,1671156161","-0,4016464126","0,4367633808"
"0,4805966667","0,02110640655","-0,2093570714","-0,363513211","0,4200210927"
"0,4905506668","-0,05876938694","-0,2938701683","-0,3045036954","0,42724234"
"0,5005046667","-0,09521410452","-0,2522896676","-0,2208855879","0,3485774591"
"0,5104586668","-0,08184574328","-0,188165227","-0,0909405756","0,2244439053"
"0,5204116667","-0,1266726729","-0,1548447955","0,07698151767","0,2143572504"
"0,5303656668","-0,1346667303","-0,1826655552","0,2824936062","0,3623595878"
"0,5403196667","-0,1781222869","-0,2032454154","0,3946952426","0,4783519442"
"0,5502736669","-0,1943020077","-0,1469603368","0,3787072009","0,4502996278"
"0,5602276667","-0,1620680254","-0,08220242344","0,3069928551","0,3567462633"
"0,5701816666","-0,1214347189","-0,02891082689","0,2224953264","0,2551203581"
"0,5801356668","-0,05727843374","0,01396095827","0,1676063436","0,1776727716"
"0,5900896667","0,01971048431","0,03630083039","0,167433266","0,172453333"
"0,6000436668","0,1097199776","0,01042602405","0,1519445765","0,1877080973"
"0,6099976667","0,1534824125","0,001411517859","0,02859054565","0,1561289936"
"0,6199516668","0,2089589125","0,008045768738","-0,1357828724","0,2493302027"
"0,6299056667","0,2104810889","0,004990452379","-0,3137580836","0,3778509341"
"0,6398596668","0,2000771199","-0,01983697146","-0,3971259302","0,4451217404"
"0,6498136667","0,2415219651","-0,0144751478","-0,4208551008","0,485449694"
"0,6597676668","0,2663455335","0,01857075691","-0,3465843523","0,4374991765"
"0,6697206667","0,2820365732","0,0455508332","-0,2598637122","0,3861976902"
"0,6796746668","0,2643515598","0,02344609223","-0,2326285511","0,3529128918"
"0,6896286667","0,2433884329","0,0221461831","-0,1819986802","0,3047161012"
"0,6995826669","0,2804065705","0,02877429441","-0,0971713686","0,29815781"
"0,7095366667","0,3055344864","0,04550953723","-0,008035828471","0,3090097327"
"0,7194906666","0,2857528442","0,05415362231","0,08603125334","0,3032963556"
"0,7294446668","0,2465943699","0,1014649791","0,1350250733","0,2988907755"
"0,7393986667","0,1810010539","0,1427042947","0,06501285195","0,2394839622"
"0,7493526668","0,1763833615","0,1931002039","-0,03425766706","0,2637657421"
"0,7593066667","0,1742192156","0,2490921177","-0,02905072153","0,3053574342"
"0,7692606668","0,1511029886","0,2332302296","0,02472904444","0,2789981699"
"0,7792146667","0,1182829234","0,1755754407","0,1142306203","0,2405539856"
"0,7891686668","0,02097603648","0,1159362531","0,2155318773","0,2456322434"
"0,7991226667","0,05409137688","0,06292926975","0,3329047912","0,3430911979"
"0,8090766668","0,08434260487","0,004934319109","0,4260871893","0,4343826831"
"0,8190296667","0,08178332426","-0,09991108149","0,4510828668","0,4691977078"
"0,8289836668","0,06567037135","-0,1642316962","0,3676466078","0,40798122"
"0,8389376667","0,06900657333","-0,177377041","0,1569743514","0,24670928"
"0,8488916669","0,06419516909","-0,1741317632","-0,07726276875","0,2010284212"
"0,8588456667","0,06292792215","-0,1548377057","-0,3054345721","0,348173687"
"0,8687996666","0,0639831253","-0,1248904599","-0,4276945889","0,4501267918"
"0,8787536668","0,0425901595","-0,1028746697","-0,4665949452","0,4796956975"
"0,8887076667","-0,04568636983","-0,1087485632","-0,4061914533","0,4229716198"
"0,8986616668","-0,137995669","-0,1277254093","-0,2960152924","0,3506873795"
"0,9086156667","-0,2101188539","-0,1458601832","-0,2129193413","0,332805907"
"0,9185696668","-0,2751318703","-0,1720024996","-0,1377510452","0,3525021368"
"0,9285236667","-0,3583844354","-0,1934182193","-0,09531897068","0,4182531737"
"0,9384776668","-0,4059005909","-0,1890504223","-0,1534432179","0,4733288212"
"0,9484316667","-0,4556322929","-0,1806457807","-0,223993383","0,5388939785"
"0,9583856668","-0,5692032011","-0,09751511179","-0,3310980016","0,6656781263"
"0,9683386667","-0,6126557244","0,009642789513","-0,3598452526","0,7105832997"
"0,9782926668","-0,6290405363","0,09248387508","-0,3201099139","0,711839603"
"0,9882466667","-0,6013050728","0,1388364346","-0,255771246","0,6680286494"
"0,9982006669","-0,5292764392","0,1664532727","-0,2795635664","0,6212857867"
"1,008154667","-0,4338111419","0,1868069918","-0,281834625","0,5500179224"
"1,018108667","-0,3417226483","0,1426541548","-0,2366327244","0,4394537774"
"1,028062667","-0,2395537375","0,07855105653","-0,04638537705","0,2563354538"
"1,038016667","-0,1310680249","-0,0315647319","0,2040268958","0,2445447477"
"1,047970667","0,02652127542","-0,1513790046","0,4544379991","0,4797216653"
"1,057924667","0,132946315","-0,2210929448","0,7425010782","0,7860436783"
"1,067878667","0,1740334203","-0,2279400343","0,9059254932","0,9502343342"
"1,077832667","0,1579273014","-0,2341672459","0,8627122307","0,9077707445"
"1,087786667","0,06417781474","-0,1533503202","0,7271281636","0,7458890527"
"1,097740667","-0,02843425598","0,0140121945","0,6499373156","0,6507098913"
"1,107694667","-0,1736714777","0,1476769862","0,566512751","0,6106610938"
"1,117647667","-0,2403271963","0,1498463032","0,4512992138","0,5328058335"
"1,127601667","-0,236381422","0,1656312273","0,4130724567","0,503923342"
"1,137555667","-0,183419645","0,1218113892","0,3338994026","0,3999619879"
"1,147509667","-0,07552990071","0,03455061257","0,2743776709","0,2866733629"
"1,157463667","-0,04029171953","-0,03569710538","0,2178812885","0,224432533"
"1,167417667","0,026701292","-0,1211294577","0,1126565498","0,1675613402"
"1,177371667","0,01405025622","-0,1331242897","0,04126087725","0,1400783573"
"1,187325667","-0,03648328179","-0,1240099423","-0,05961645663","0,1423503338"
"1,197279667","-0,1135223763","-0,06638899416","-0,240995332","0,2745424894"
"1,207233667","-0,2048618599","0,02916488841","-0,4399088377","0,486146848"
"1,217187667","-0,2314353354","0,09780623004","-0,6109065664","0,6605567394"
"1,227141667","-0,1991343477","0,09023774028","-0,7489546502","0,7802117701"
"1,237095667","-0,1536283188","0,09635305077","-0,6631239563","0,6874728738"
"1,247049667","-0,2012689834","0,1633060089","-0,4235319561","0,4965454401"
"1,257003667","-0,18116505","0,0943758148","-0,3291403538","0,3873770028"
"1,266956667","-0,1122462945","0,02949759498","-0,3170067966","0,337583542"
"1,276910667","-0,04676350918","0,002396335155","-0,3423591542","0,3455464639"
"1,286864667","0,01659447111","-0,05322808117","-0,4040005016","0,4078296341"
"1,296818667","0,1327014629","-0,1282342632","-0,3722343332","0,4154661277"
"1,306772667","0,2438419028","-0,2079129553","-0,2885390425","0,4312092874"
"1,316726667","0,3131025376","-0,2873767622","-0,2739309436","0,5056251224"
"1,326680667","0,3093737317","-0,3152852301","-0,3348215085","0,5542763974"
"1,336634667","0,2133413276","-0,2580709559","-0,4923408204","0,5954113064"
"1,346588667","0,1481219958","-0,2270924073","-0,5849753344","0,6447536188"
"1,356542667","0,09316182319","-0,1922802781","-0,5692802382","0,6080549483"
"1,366496667","0,02813842798","-0,1521962991","-0,4847996664","0,5089068688"
"1,376450667","-0,02217185603","-0,102064611","-0,3328001261","0,348804673"
"1,386404667","-0,01847213997","-0,1290110658","-0,1370096183","0,1890944488"
"1,396358667","-0,009586893786","-0,1992438734","0,1442554879","0,2461700132"
"1,406312667","-0,09759929342","-0,2216322774","0,4081596261","0,4745953738"
"1,416265667","-0,1655480324","-0,2797628103","0,507510252","0,6026939828"
"1,426219667","-0,08870880302","-0,3307623714","0,441187039","0,5584970917"
"1,436173667","0,01897384934","-0,3320398419","0,2772346205","0,4329774802"
"1,446127667","0,1143261766","-0,3329009905","0,06060288191","0,3571641828"
"1,456081667","0,1422092183","-0,3176916517","-0,2417098618","0,4237630288"
"1,466035667","0,1189599305","-0,2520028616","-0,4662300789","0,5431642421"
"1,475989667","0,1188033713","-0,1614221822","-0,5534167421","0,5885927729"
"1,485943667","0,1178803792","-0,1072383736","-0,491363166","0,5165593997"
"1,495897667","0,09640705529","-0,1026984492","-0,3695364279","0,3954724558"
"1,505851667","0,06457757243","-0,108863461","-0,2957825732","0,3217279078"
"1,515805667","0,04089672819","-0,09119185969","-0,2523172957","0,2713899691"
"1,525759667","0,04636475191","-0,07664559513","-0,2162189251","0,2340402979"
"1,535713667","0,04083492586","-0,08833695665","-0,1110696155","0,1476731816"
"1,545667667","0,06450256818","-0,1615433657","0,02953720987","0,1764349372"
"1,555621667","0,1242111778","-0,2330733781","0,08688319266","0,2780293248"
"1,565574667","0,2009201056","-0,2796017195","0,117593354","0,3638326639"
"1,575528667","0,3167861738","-0,2763052055","0,1641401142","0,4512649151"
"1,585482667","0,4001890307","-0,3226939447","0,1334621125","0,5311259528"
"1,595436667","0,4373187404","-0,3685264675","0,05438144445","0,5744708691"
"1,605390667","0,4779956635","-0,353477781","-0,03926463783","0,5957920004"
"1,615344667","0,4269619328","-0,2973620524","-0,04976097465","0,5226823479"
"1,625298667","0,3243334309","-0,2737933148","0,05497084379","0,4279915271"
"1,635252667","0,1680358947","-0,2114777834","0,2204499704","0,348650404"
"1,645206667","0,04609809147","-0,1761960496","0,358578161","0,4021795364"
"1,655160667","0,002078849617","-0,1529299785","0,4891418087","0,5124954722"
"1,665114667","0,003018323584","-0,1584057498","0,4713762134","0,4972896806"
"1,675068667","0,03638365072","-0,1979654527","0,371579445","0,4225936281"
"1,685022667","0,04586534031","-0,1953737475","0,2076989472","0,288813752"
"1,694976667","-0,2153875059","-0,2118791948","0,0316772908","0,3037894363"
"1,704930667","-0,528658827","0,0173176986","0,02299359083","0,5294419357"
"1,714884667","-0,514993409","0,3397630636","0,1457710862","0,6339608507"
"1,724837667","-0,6923929252","0,3383632401","0,3488121414","0,8459122621"
"1,734791667","-0,6750103956","0,1743239173","1,271481721","1,450066767"
"1,744745667","-0,4742204088","0,09283865489","0,9974344182","1,108322801"
"1,754699667","-0,2837539735","0,2093806064","-0,08009866834","0,3616246016"
"1,764653667","-0,2548924094","0,2004856758","-0,2825012076","0,4300832232"
"1,774607667","0,008166970555","0,01804743111","-0,3216179109","0,3222273883"
"1,784561667","0,07534861875","0,02688505903","-0,3226288944","0,3323997958"
"1,794515667","0,09666638844","-0,08206589095","-0,3250011098","0,348862326"
"1,804469667","0,2935641031","-0,3254429401","-0,1789271379","0,4734003702"
"1,814423667","0,3430310358","-0,4235177035","-0,05154203653","0,5474432557"
"1,824377667","0,2623686959","-0,3507271045","-0,09393025696","0,447961748"
"1,834331667","0,0109545758","-0,1912662978","-0,1497015846","0,2431323998"
"1,844285667","-0,2319563223","-0,0644056917","-0,1174366486","0,267849202"
"1,854239667","-0,2701341272","-0,02186990216","-0,02585112512","0,2722480853"
"1,864193667","-0,178855546","0,006770417914","-0,02321578503","0,1804830119"
"1,874146667","-0,1038323888","-0,0654940778","-0,01392455935","0,1235497169"
"1,884100667","-0,1784523074","-0,1200499155","-0,01584186137","0,2156575359"
"1,894054667","-0,09684619032","-0,04923282489","-0,03287538528","0,1135070332"
"1,904008667","-0,06176234823","-0,02686210871","-0,143404718","0,1584331837"
"1,913962667","-0,1534991136","-0,08862449348","-0,2320379823","0,2919895614"
"1,923916667","-0,1703898375","-0,04958175749","-0,2246821851","0,2863095033"
"1,933870667","-0,177179332","0,0297129187","0,0009033948183","0,1796557523"
"1,943824667","-0,1552492401","-0,02801927269","0,188486166","0,2457934925"
"1,953778667","-0,09745896025","-0,09400934055","0,3248373878","0,3519308647"
"1,963732667","-0,03760200033","-0,09931671202","0,2985693562","0,3168933262"
"1,973686667","-0,03919313734","-0,06980069831","0,02931326151","0,08524967331"
"1,983640667","-0,02775873355","-0,01168902263","-0,2078954136","0,2100659029"
"1,993594667","-0,06118294397","-0,06878898382","-0,290209592","0,3044616301"
"2,003548667","-0,08200360897","-0,07308946475","-0,2555215698","0,2781329438"
"2,013502667","-0,06375413829","-0,009680650234","-0,1521363652","0,165238551"
"2,023455667","-0,1080489347","0,02811253577","-0,1604417503","0,1954646827"
"2,033409667","-0,1265436961","0,003297537267","-0,1214864302","0,1754512283"
"2,043363667","-0,1357395848","0,01650785923","-0,0863095808","0,1617006123"
"2,053317667","-0,06696750306","0,02266336933","-0,002997282743","0,0707619847"
"2,063271667","-0,001544551151","-0,02971131071","0,1854602319","0,1878314277"
"2,073225667","-0,0837970231","-0,08813493535","0,227490018","0,2579562292"
"2,083179667","-0,04849318866","-0,1269586931","0,2218679202","0,2601835373"
"2,093133667","-0,0004764475767","-0,134746892","0,1186259723","0,1795245755"
"2,103087667","0,01426272942","-0,1465600218","0,0189011246","0,1484604929"
"2,113041667","0,007974359617","-0,1428435315","-0,03570953071","0,1474551983"
"2,122995667","0,02402165925","-0,09638652608","-0,2281741422","0,24885908"
"2,132949667","0,08022827553","-0,0628349103","-0,4185384339","0,4307658561"
"2,142903667","0,1138763155","-0,06830074131","-0,4516933161","0,4708074535"
"2,152857667","0,2185619958","-0,1172678103","-0,3899250841","0,4621283983"
"2,162811667","0,214433624","-0,1833405431","-0,3169699591","0,4243412411"
"2,172765667","0,09690177541","-0,1700060409","-0,2302136511","0,3021429019"
"2,182718667","-0,07194845371","-0,05414982162","-0,1779237556","0,1994132543"
"2,192672667","-0,1847369679","0,01901090607","-0,1332884502","0,2285934663"
"2,202626667","-0,1606361885","0,02876077272","-0,003193164468","0,1632218227"
"2,212580667","-0,1714069424","0,02065901689","0,01597751677","0,1733851664"
"2,222534667","-0,1851361682","0,00368338041","-0,0648865521","0,1962122135"
"2,232488667","-0,07924587021","-0,03914813206","0,01272821903","0,08930000979"
"2,242442667","-0,03095057325","-0,1005504745","-0,02344908893","0,1077877344"
"2,252396667","-0,02860928415","-0,1373347966","0,05586897612","0,1509989403"
"2,262350667","0,005786148794","-0,1444143129","0,2027446014","0,2489866396"
"2,272304667","0,003933202699","-0,1471356071","0,2331612325","0,2757326917"
"2,282258667","0,04711256968","-0,1804374737","0,292066083","0,346525429"
"2,292212667","0,05969266229","-0,1622312175","0,1963921863","0,2616334702"
"2,302166667","0,04991245408","-0,1158953957","0,02573768914","0,1287844107"
"2,312120667","0,03743337211","-0,1012617152","-0,06610043406","0,1265877549"
"2,322074667","-0,06207008536","-0,1331195388","-0,1102667928","0,1836634768"
"2,332028667","-0,2084469888","-0,1377058024","-0,1755158722","0,3053176322"
"2,341981667","-0,194312021","-0,1274837731","-0,2149518335","0,3165652613"
"2,351935667","-0,138469668","-0,2014625262","-0,1444133627","0,2839299522"
"2,361889667","-0,07911352213","-0,254168378","-0,03498447597","0,2684854322"
"2,371843667","-0,1250330771","-0,2189929904","0,05784299612","0,2587218824"
"2,381797667","-0,2201234399","-0,1702547669","0,03750754952","0,280798559"
"2,391751667","-0,1475958195","-0,1436053506","0,06099698424","0,2147734964"
"2,401705667","-0,04580851268","-0,1407162414","-0,007397897243","0,1481695289"
"2,411659667","-0,05228262294","-0,1322708885","-0,1662649924","0,218799242"
"2,421613667","-0,0517518328","-0,04436121717","-0,3391478634","0,3459298238"
"2,431567667","-0,06553647012","-0,000763207823","-0,3503809494","0,3564581618"
"2,441521667","-0,1129788776","-0,03396479465","-0,118910147","0,1675036032"
"2,451475667","-0,05514805097","-0,02560941584","-0,05017905056","0,07883582194"
"2,461429417","-0,1456915275","-0,05615622059","0,160030691","0,2235830145"
"2,471383417","-0,1415736625","-0,06560268983","0,2077170736","0,2597945293"
"2,481337417","-0,06919913859","-0,05675490238","0,2093466926","0,2276744988"
"2,491290417","0,004459260246","-0,09884009086","0,1560031289","0,1847328471"
"2,501244417","0,0336860926","-0,191279454","0,1702814448","0,2582989601"
"2,511198417","0,02728956758","-0,2113414702","0,192984429","0,2874942214"
"2,521152417","0,03384505464","-0,19257929","0,1459991276","0,2440246216"
"2,531106417","0,01420458617","-0,1885751168","0,1534841484","0,243556418"
"2,541060417","-0,04486316409","-0,1486232118","0,149106338","0,2152539492"
"2,551014417","-0,09998660194","-0,1557389078","0,2254358912","0,291673223"
"2,560968417","-0,001160041904","-0,1574349658","0,1719081402","0,2331083929"
"2,570922417","0,2253456613","-0,1656152936","0,02288015485","0,2805932894"
"2,580876417","0,1151102334","-0,2474683459","0,02484364986","0,2740586707"
"2,590830417","0,0325119717","-0,2102053562","-0,02349528193","0,2139984774"
"2,600784417","0,0006711141765","-0,1107455336","-0,07007244766","0,1310540786"
"2,610738417","-0,02095344247","-0,1067909154","-0,09110546708","0,1419279835"
"2,620692417","-0,02680398373","-0,120232641","-0,06068064988","0,137318909"
"2,630646417","-0,04089201844","-0,1087969489","-0,04281565189","0,1238632848"
"2,640600417","-0,09239573744","-0,08292404294","-0,1083933449","0,164810456"
"2,650553417","-0,06212877679","-0,04144784197","-0,2069072342","0,2199738895"
"2,660507417","0,008509982843","-0,0717830506","-0,1298251444","0,1485927127"
"2,670461417","0,06645538746","-0,07971918404","-0,03291690052","0,1088806189"
"2,680415417","0,03143676924","-0,07661869794","-0,02904955208","0,0877642969"
"2,690369417","0,02636277476","-0,07142768607","-0,0582599026","0,09587036289"
"2,700323417","0,03897341908","-0,03729982719","-0,0666056335","0,08571181317"
"2,710277417","-0,005377136059","-0,05923185602","-0,1297625792","0,1427433127"
"2,720231417","-0,05603067904","-0,0802286227","-0,1338252246","0,1657867897"
"2,730185417","-0,1031856593","-0,08414713427","-0,05374468267","0,1435845096"
"2,740139417","-0,05802341927","-0,09033889711","0,03219944715","0,1120920957"
"2,750093417","-0,003480555117","-0,08179933101","0,1563235563","0,1764661414"
"2,760047417","-0,05023461739","-0,1059658733","0,1243135589","0,1708980516"
"2,770001417","-0,07313888286","-0,1087938792","0,02006472051","0,1326197472"
"2,779955417","-0,01782697281","-0,124427872","-0,03949560285","0,1317573487"
"2,789909417","0,01177328649","-0,1803123432","0,003031781316","0,1807217283"
"2,799863417","-0,02636056378","-0,1622033702","-0,05523806155","0,1733668252"
"2,809817417","-0,05779356888","-0,08662152976","-0,1464172035","0,1796702076"
"2,819770417","-0,02780597722","-0,0981651029","-0,2221018088","0,2444151658"
"2,829724417","-0,0005034452677","-0,1157437335","-0,1630683196","0,1999703532"
"2,839678417","0,05509776492","-0,08142847136","-0,1138967443","0,1504620484"
"2,849632417","0,03266492207","-0,09404354677","-0,1452869368","0,1761234789"
"2,859586417","0,02973481835","-0,1027564828","-0,1588109618","0,1914783951"
"2,869540417","0,07367337319","-0,09261755705","0,0006046020985","0,1183475531"
"2,879494417","-0,004432582324","-0,07603339165","0,1156164104","0,1384481086"
"2,889448417","-0,04842082936","-0,03662725121","-0,02662938952","0,0662967317"
"2,899402417","-0,03097237241","-0,03223175302","-0,1320196044","0,1393820279"
"2,909356417","-0,08280698899","-0,1134544024","-0,01935077548","0,1417862876"
"2,919310417","-0,09911153871","-0,1679976685","0,1457892126","0,2435175728"
"2,929264417","-0,0981106507","-0,1751274709","0,2617471004","0,3298588719"
"2,939218417","-0,1536069034","-0,1526889271","0,2539235258","0,3337456309"
"2,949172417","-0,1046761328","-0,1494976629","0,1062801611","0,2111921321"
"2,959126417","0,03455444067","-0,112079722","-0,167265451","0,2042880431"
"2,969080417","0,08713799422","-0,04144886523","-0,4042688888","0,4156252795"
"2,979033417","0,02399938501","0,02240945399","-0,5497756809","0,5507553481"
"2,988987417","0,04854157437","0,05346810937","-0,6106773555","0,6149324806"
"2,998941417","0,07530918659","0,05628047392","-0,5652760649","0,5730410063"
"3,008895417","0,03428700364","0,04630804762","-0,4055546916","0,4096274426"
"3,018849417","0,06112148426","0,02856905714","-0,2160809308","0,2263691576"
"3,028803417","0,06663901288","0,0155180718","0,06253538668","0,09269435353"
"3,038757417","0,01773614454","-0,02689879999","0,3329077148","0,3344632459"
"3,048711417","-0,01751224186","-0,05192649096","0,515118649","0,5180253484"
"3,058665417","-0,08517205982","-0,05470070243","0,5027324921","0,5128220015"
"3,068619417","-0,1091104145","-0,02889328524","0,4322033769","0,4466986271"
"3,078573417","-0,08029394707","-0,03093747184","0,2746624303","0,2878258079"
"3,088527417","-0,01869357585","-0,0458892408","0,1809777564","0,1876385368"
"3,098481417","-0,0104598237","-0,03153344929","0,1390386021","0,1429527867"
"3,108435417","-0,06652506983","0,02699776411","0,1453471631","0,1621118811"
"3,118389417","-0,1024862866","0,05121868551","0,06545665562","0,131952137"
"3,128343417","-0,08805281851","0,005002877712","-0,06114199519","0,1073157547"
"3,138296417","-0,08141211743","-0,04581205755","-0,06841943979","0,1157924748"
"3,148250417","-0,07688914994","-0,04885714129","-0,05864581883","0,1083434063"
"3,158204417","-0,05766207048","-0,05877197251","-0,01961506963","0,08463929395"
"3,168158417","-0,0749037507","-0,07240767941","0,0150185734","0,1052568357"
"3,178112417","-0,07726107853","-0,08659872562","0,006265876293","0,1162233829"
"3,188066417","-0,07074029105","-0,0881032142","-0,0341366297","0,1180325151"
"3,198020417","-0,1124959798","-0,09556148395","0,008254514337","0,1478359892"
"3,207974417","-0,06258803903","-0,1025496376","0,0603748405","0,1344574734"
"3,217928417","0,01052507954","-0,07879123092","0,05323655963","0,09567113802"
"3,227882417","-0,002246673843","-0,08189566389","-0,01486186802","0,08326357204"
"3,237836417","0,0138834918","-0,07754577398","-0,1203222495","0,1438177393"
"3,247790417","0,036113418","-0,05104721591","-0,2099793613","0,2190920569"
"3,257744417","0,03894315974","-0,07444411844","-0,2352597982","0,249811267"
"3,267698417","0,08016412974","-0,063900273","-0,2159446907","0,2390431803"
"3,277652417","0,06022762771","-0,02591924518","-0,1316114688","0,1470399712"
"3,287606417","0,04517773516","-0,02129672885","-0,001695692539","0,04997453138"
"3,297559417","0,06475230368","0,004801002592","0,07514607668","0,09931184873"
"3,307513417","0,03223855041","-0,01253730744","-0,00255523324","0,03468482993"
"3,317467417","-0,02187005748","-0,04994106889","-0,07902102649","0,09600381453"
"3,327421417","-0,01150813353","-0,02214574456","-0,08774624169","0,09122649873"
"3,337375417","-0,03429337163","0,0001901806891","-0,09226789355","0,09843493123"
"3,347329417","-0,001452357005","-0,0811023429","-0,05737229526","0,09935431359"
"3,357283417","0,0293642876","-0,1113782023","0,05046907246","0,1257556862"
"3,367237417","-0,04267935695","-0,08846939608","0,03617789268","0,104676652"
"3,377191417","-0,02574724568","-0,1034407532","-0,02617096782","0,1097626059"
"3,387145417","0,02930413437","-0,107858617","-0,04274314642","0,1196628185"
"3,397099417","0,07641647564","-0,0983238548","-0,07656227231","0,1461808459"
"3,407053417","0,05135595803","-0,1147155006","-0,1062830848","0,1646000444"
"3,417007417","0,07100377207","-0,134752593","-0,08347251177","0,1736878153"
"3,426961417","0,1923510476","-0,1455696496","-0,01336556554","0,2415948815"
"3,436915417","0,2703745757","-0,1629390961","0,1090178275","0,3339707277"
"3,446869417","0,1607596378","-0,1926088916","0,1837709713","0,3109881286"
"3,456822417","-0,00342880269","-0,2049962179","0,2062143391","0,2907912649"
"3,466776708","-0,1545612238","-0,1744342835","0,2434815681","0,3370456426"
"3,476730708","-0,2085323581","-0,1667332081","0,2366976285","0,3568073352"
"3,486684708","-0,2740307483","-0,1905038939","0,1160420877","0,3533416912"
"3,496638709","-0,2034150943","-0,1750694373","0,05509422004","0,2739751477"
"3,506592708","-0,1379538888","-0,1338978763","-0,01638799131","0,1929468397"
"3,516546709","-0,1570973805","-0,1493263395","-0,1463780272","0,2615424812"
"3,526500708","-0,1543422456","-0,1343067428","-0,2180403328","0,2990006968"
"3,536454708","-0,140267833","-0,04428388774","-0,2679229295","0,305644931"
"3,546408708","-0,1427620177","0,01743654326","-0,3645411515","0,3918868177"
"3,556362708","0,01881449901","-0,0352727437","-0,4238044363","0,4256857433"
"3,566316708","0,07992136979","-0,09695750669","-0,4096600217","0,4284968107"
"3,576270708","0,05393407764","-0,06993781552","-0,2755862904","0,2893924432"
"3,586224708","0,02541164748","-0,01426208988","-0,02832566679","0,0406386815"
"3,596178708","-0,04160124459","-0,04792158678","0,1469966626","0,16010984"
"3,606132708","-0,0753810845","-0,08966091245","0,2747969162","0,298721831"
"3,616086708","-0,05328587724","-0,07822887495","0,3297999197","0,3431138712"
"3,626039708","-0,03540597342","-0,09780169845","0,3094486856","0,3264617041"
"3,635993708","-0,009879135797","-0,1152487667","0,2804874265","0,3034024917"
"3,645947709","0,01141751539","-0,1008947293","0,1746077996","0,2019851226"
"3,655901708","-0,03241883195","-0,1082227524","0,07954142869","0,1381665071"
"3,665855709","-0,08961731415","-0,1125665027","-0,05178469598","0,1529187211"
"3,675809708","-0,01533687664","-0,1308124468","-0,1872734535","0,228950786"
"3,685763708","0,06897914624","-0,1798403268","-0,1763274658","0,2611360583"
"3,695717708","0,06203280479","-0,22801349","-0,1320453322","0,270692058"
"3,705671708","0,1188606283","-0,2940810335","-0,1240685606","0,3405943496"
"3,715625708","0,1170678172","-0,2760599148","-0,08349356174","0,3112637551"
"3,725579708","0,04782099183","-0,2275386961","0,01128454149","0,2327832605"
"3,735533708","0,0131751199","-0,1438651863","0,05962639689","0,1562884603"
"3,745487708","-0,06077915262","-0,1118698069","0,03764846742","0,1327643258"
"3,755441708","-0,0637963296","-0,09562317207","-0,01422744513","0,1158282474"
"3,765395708","-0,04194880217","-0,07615282103","-0,04234787464","0,09670727295"
"3,775348708","-0,04690150803","-0,04411578029","-0,01964372098","0,06731886289"
"3,785302708","-0,1166717323","-0,03428529516","0,008496589065","0,1219014627"
"3,795256709","-0,09035364306","-0,007140473574","0,01666514933","0,09215473064"
"3,805210708","-0,1208327663","-0,007635148019","-0,08116169214","0,1457603278"
"3,815164709","-0,1252964028","-0,01485528991","-0,1417522949","0,1897724461"
"3,825118708","-0,06573553583","-0,01143423021","-0,1428094715","0,1576275593"
"3,835072708","-0,0565124622","-0,03166749671","-0,1046552199","0,1230821018"
"3,845026708","-0,04387584345","-0,07458912939","-0,07880292535","0,1170407147"
"3,854980708","0,008824745771","-0,07679733038","-0,01506652057","0,07875726083"
"3,864934708","0,05438614964","-0,08506485477","-0,009950206876","0,1014538782"
"3,874888708","0,02072864444","-0,1050349966","-0,02554882407","0,1100671141"
"3,884842708","-0,02436001204","-0,1128362055","-0,02107278049","0,1173434342"
"3,894796708","-0,02517141371","-0,08161996767","-0,007386787534","0,08573204664"
"3,904750708","0,03292206251","-0,0880733934","0,02001151085","0,0961313965"
"3,914704708","0,02213791477","-0,1150799283","0,104375723","0,1569323699"
"3,924658709","-0,0412621746","-0,1055980834","0,07826498151","0,137764036"
"3,934612708","-0,02435158839","-0,07714333937","-0,01902508557","0,08310263863"
"3,944565709","-0,06098142517","-0,1083445206","-0,03713508189","0,1297547058"
"3,954519708","-0,06280805879","-0,09899292246","-0,05158355176","0,1280832298"
"3,964473709","-0,02885904249","-0,02378194168","-0,1102673775","0,1164359035"
"3,974427708","-0,05863923158","-0,0238861683","-0,1944573426","0,204506153"
"3,984381708","-0,064491125","-0,08562954962","-0,1465750784","0,1815923417"
"3,994335708","-0,008507104916","-0,06735626981","-0,0796285522","0,1046419813"
"4,004289708","-0,01950956393","-0,02074650586","-0,09008980572","0,09448393348"
"4,014243708","-0,03649289316","0,008687793016","-0,1251690066","0,1306693889"
"4,024197708","-0,007309969738","-0,004539047331","-0,137724148","0,1379926794"
"4,034151708","0,02944859714","-0,001400115788","-0,1682243943","0,1707882521"
"4,044105708","0,02626550999","0,03487308651","-0,2004717886","0,205170532"
"4,054059708","-0,04769765669","0,05804896429","-0,1062129182","0,1300997029"
"4,064013708","-0,03489855845","0,09482093409","0,05618355632","0,1156093029"
"4,073967709","-0,03424355152","0,1223483098","0,1039500457","0,164156455"
"4,083921708","-0,03081507317","0,1005050124","0,04509782016","0,1143881097"
"4,093875709","-0,004625366852","0,06282058463","-0,01997876644","0,06608306122"
"4,103828708","0,05237281624","0,06952880278","-0,03449272513","0,09363180221"
"4,113782709","0,1274849699","0,05159056842","-0,002549970746","0,1375518326"
"4,123736708","0,1466652351","0,03405564576","0,04394825757","0,1568500161"
"4,133690708","0,135393457","0,05476911485","0,010189358","0,1464065134"
"4,143644708","0,1003842948","0,1166075134","-0,05129060626","0,1621883014"
"4,153598708","0,06232044669","0,09646063954","-0,03994466901","0,1215897596"
"4,163552708","0,03478790446","0,0432346049","0,03059146285","0,06336613414"
"4,173506708","-0,03042155555","0,08799547926","0,1502149701","0,1767292071"
"4,183460708","-0,1083006026","0,1303983177","0,2312246346","0,2867011919"
"4,193414708","-0,1661800067","0,1425444464","0,2076895916","0,3017775345"
"4,203368708","-0,1926497855","0,1596278179","0,05391834497","0,2559339134"
"4,213322708","-0,07515022912","0,1358031915","-0,1567515725","0,2205926545"
"4,223276709","0,05313866445","0,1114575782","-0,2233238769","0,2551863307"
"4,233230708","0,02074075914","0,1705346292","-0,2698267829","0,319872993"
"4,243184709","0,02478061414","0,2242962688","-0,3015724862","0,376654828"
"4,253138708","0,09102483032","0,2110954486","-0,2572312957","0,3449851412"
"4,263092708","0,09958993231","0,1720148519","-0,1124513125","0,2283693534"
"4,273045708","0,09561574428","0,1650725989","-0,02280238688","0,1921230916"
"4,282999708","0,1061208062","0,1582553302","-0,06861941457","0,2025216016"
"4,292953708","0,09280899854","0,08565308467","-0,09459859371","0,1577937104"
"4,302907708","0,139627773","0,03621853083","-0,005511000752","0,1443539681"
"4,312861708","0,1172735296","0,01628376469","0,06519411564","0,1351610685"
"4,322815708","0,05612200524","0,01128424913","0,01857718885","0,06018409836"
"4,332769708","0,05696484483","0,04882746667","-0,1025589931","0,1270726647"
"4,342723708","0,05645400831","0,09539790809","-0,1366055757","0,1759229923"
"4,352677708","0,02275073038","0,1097382045","-0,1920506287","0,2223589738"
"4,362631708","0,07238844755","0,1467618969","-0,287202369","0,3305515731"
"4,372585709","0,09969933006","0,1529570219","-0,4033485371","0,4427480653"
"4,382539708","0,05312355305","0,1268003798","-0,4467237675","0,4673997996"
"4,392493709","0,06513715097","0,1161672181","-0,3332129395","0,358843328"
"4,402447708","0,03256887241","0,1309916639","-0,2193869466","0,2575852864"
"4,412401708","-0,04024142434","0,1638120854","-0,1582086986","0,23126557"
"4,422355708","-0,01948790182","0,2064072973","-0,1412049955","0,2508437789"
"4,432308708","0,00883453072","0,1448611133","-0,0696315676","0,1609700167"
"4,442262708","0,03939526828","0,1134074785","-0,0005128008127","0,1200562631"
"4,452216708","0,006619614568","0,1380441369","0,04089601099","0,1441266344"
"4,462170167","-0,005994419307","0,1671167855","0,03971078038","0,1718746611"
"4,472124167","0,03029482629","0,1722411391","-0,02358240545","0,1764678904"
"4,482078167","0,05414680665","0,2071102788","-0,05204782069","0,2203077844"
"4,492032167","0,03786064826","0,2042844656","-0,02330817103","0,209066598"
"4,501986167","-0,01270856691","0,1880860703","0,002801985741","0,1885357489"
"4,511940167","-0,0422721532","0,2067244356","0,05303073764","0,217564212"
"4,521894167","-0,03779112578","0,178471859","0,08039453745","0,1993581082"
"4,531848167","-0,02028280338","0,143749119","0,123175106","0,1903872582"
"4,541802167","-0,005612216969","0,1077947362","0,1760731119","0,2065258891"
"4,551756167","0,01708094575","0,07253982648","0,2088660514","0,2217629648"
"4,561710167","0,06094657028","0,04902868398","0,2811002147","0,2917801004"
"4,571664167","-0,009743672255","0,04123398006","0,3048305547","0,3077610231"
"4,581618167","0,007005759208","0,0592819228","0,21284859","0,2210609629"
"4,591572167","0,09076075545","0,03881030917","0,1367944407","0,1686904676"
"4,601526167","0,09036418632","0,008751746938","0,03842146933","0,09858239472"
"4,611479167","0,1040125835","-0,02071522325","-0,04126438558","0,1138002088"
"4,621433167","0,1619748537","-0,02448068395","-0,06022690594","0,1745349172"
"4,631387167","0,1692208695","-0,01942350022","-0,09642234027","0,1957300251"
"4,641341167","0,1003258501","0,009455970973","-0,2175719708","0,2397754242"
"4,651295167","0,1363744462","0,05293177351","-0,3294555187","0,3604728853"
"4,661249167","0,211225476","0,06406282559","-0,397880221","0,4550043051"
"4,671203167","0,1458362644","0,05932482675","-0,4518003201","0,4784466327"
"4,681157167","0,04660016173","0,07574402757","-0,424376294","0,4335942478"
"4,691111167","0,02185188543","0,07450112879","-0,2959527272","0,3059672202"
"4,701065167","0,05915653657","0,01939857647","-0,03156385481","0,06980026876"
"4,711019167","0,07711469715","-0,01492808774","0,2771328789","0,2880488793"
"4,720973167","0,0447892699","-0,06222541116","0,4758768153","0,4820133026"
"4,730927167","0,01024292397","-0,1423234948","0,60422086","0,6208411571"
"4,740881167","-0,03912192922","-0,1721113309","0,6727016956","0,6954713558"
"4,750835167","-0,09136284507","-0,1644006807","0,6290949154","0,6566088378"
"4,760789167","-0,186273945","-0,1726114871","0,4858077264","0,548180495"
"4,770742167","-0,1987120325","-0,07979804836","0,2803763294","0,3527960976"
"4,780696167","-0,2092891706","0,04974701442","-0,03729120255","0,2183285509"
"4,790650167","-0,2768652591","0,139969625","-0,374905926","0,4866213322"
"4,800604167","-0,2049157274","0,1672967336","-0,5937800717","0,6500410956"
"4,810558167","-0,1189721","0,1366527919","-0,6733033741","0,6972558925"
"4,820512167","-0,1111603387","0,108352122","-0,6621071255","0,6800607685"
"4,830466167","-0,1777213872","0,1100852367","-0,634969613","0,6684983621"
"4,840420167","-0,1548244033","0,08203526616","-0,5274609518","0,5558016161"
"4,850374167","-0,06559894396","0,05127262607","-0,4483627421","0,4560276879"
"4,860328167","-0,007499328163","0,004362461418","-0,3982193595","0,3983138578"
"4,870282167","-0,02157873823","-0,02915801793","-0,404995113","0,4066163714"
"4,880236167","-0,1118156106","-0,03061697133","-0,3782417625","0,3956096063"
"4,890190167","-0,1504472508","-0,00282771349","-0,35424362","0,3848777904"
"4,900144167","-0,1041504225","0,03981398374","-0,3742826128","0,390538011"
"4,910098167","-0,1356532013","0,037840183","-0,2803459239","0,3137315851"
"4,920052167","-0,1569306069","0,02850824609","-0,2037918377","0,2587876516"
"4,930005167","-0,1860304085","0,01368394643","-0,1385503596","0,2323591303"
"4,939959167","-0,165301627","-0,0127321659","-0,04419150174","0,1715797913"
"4,949913167","-0,1190320797","-0,001856417879","0,1128500926","0,1640342211"
"4,959867167","-0,1586965391","0,05288031802","0,1880248207","0,2516629746"
"4,969821167","-0,1706369007","0,09525932908","0,1638565242","0,2550299045"
"4,979775167","-0,1226723734","0,09720213957","0,1338398427","0,2059365694"
"4,989729167","-0,05380310914","0,1364219","0,01023672044","0,1470051013"
"4,999683167","-0,008647474637","0,2298686653","-0,1381948489","0,2683508867"
"5,009637167","-0,01984616255","0,2390620963","-0,302710939","0,3862362861"
"5,019591167","0,05887047068","0,2387399147","-0,3349787986","0,4155397391"
"5,029545167","0,0291120442","0,2320193443","-0,3936287105","0,4578471896"
"5,039499167","-0,08832837769","0,2718441454","-0,419107368","0,5072988543"
"5,049453167","-0,08867554698","0,3218323575","-0,3452348149","0,4802358758"
"5,059407167","-0,03476569874","0,3055522473","-0,2879075432","0,4212618937"
"5,069361167","-0,02536279125","0,2696269543","-0,1774179715","0,3237577834"
"5,079315167","-0,03251522421","0,2746872079","-0,08764040709","0,2901571004"
"5,089269167","0,04102760076","0,2940316976","-0,0956259495","0,3119009866"
"5,099222167","0,07370015161","0,3392903893","-0,1841878778","0,3930328929"
"5,109176167","-0,03305547953","0,3584321268","-0,3409230781","0,4957769654"
"5,119130167","-0,1049722212","0,349336125","-0,452604897","0,581296902"
"5,129084167","-0,08476033361","0,35301512","-0,4892061281","0,6092016291"
"5,139038167","-0,05934587672","0,4056459812","-0,4540924287","0,6117765351"
"5,148992167","-0,03091385457","0,407068828","-0,4109996188","0,5792938665"
"5,158946167","0,05929305078","0,3502938259","-0,4645870113","0,5848611129"
"5,168900167","0,2637339477","0,372249609","-0,3965371156","0,6044559956"
"5,178854167","0,2944779498","0,3620285299","-0,3594716156","0,5890685544"
"5,188808167","0,009647512967","0,5334886272","-0,448858586","0,6972640963"
"5,198762167","-0,01079319265","0,877028992","-0,443906579","0,9830307202"
"5,208716167","-0,007221759008","1,031842651","-0,03893953264","1,032602391"
"5,218670167","-0,1069280509","1,024322474","0,357878834","1,090296931"
"5,228624167","-0,2044809138","1,172640388","0,6544917119","1,35840249"
"5,238578167","0,100086699","1,034505912","0,6034718317","1,201831136"
"5,248532167","1,111062044","0,1232110664","0,0734439522","1,120282932"
"5,258486167","0,8861942102","0,8842316654","-0,01241071522","1,251942428"
"5,268439167","0,5191835237","1,395572501","0,01675051868","1,489112057"
"5,278393167","-0,1369455547","1,469830678","-0,1104299301","1,480321275"
"5,288347167","-0,4272143132","1,713626242","-0,1948631394","1,776794476"
"5,298301167","-0,2939770809","1,899009583","-0,2947949785","1,944110079"
"5,308255167","-0,1381021157","1,817047407","-0,5035277134","1,890574947"
"5,318209167","-0,1644237407","1,731189085","-0,8311366814","1,92739176"
"5,328163167","-0,0236725622","1,742603581","-0,960696947","1,990016647"
"5,338117167","0,1463104188","1,78327082","-0,7492201138","1,939791827"
"5,348071167","0,1270232683","1,868746441","-0,5165699279","1,942985503"
"5,358025167","-0,1467492158","1,681579407","-0,4782455224","1,754412555"
"5,367979167","-0,09243088469","1,75246491","-0,7699479085","1,91637588"
"5,377933167","0,2965149004","1,715816024","-1,201703389","2,115664612"
"5,387887167","0,4984912873","1,33319879","-1,79467596","2,290583851"
"5,397841167","0,8411399518","1,258632319","-2,375761726","2,817075702"
"5,407795167","0,9593222666","1,466310947","-2,582698197","3,121008968"
"5,417749167","0,8486588133","1,680034865","-2,394460537","3,045682222"
"5,427703167","0,5878925468","1,812301953","-1,955708864","2,730357701"
"5,437656167","0,3062126538","1,811110437","-1,448627797","2,339318212"
"5,447610167","0,06887833659","1,813439529","-1,279088949","2,220219739"
"5,457564167","-0,1835434781","2,127019126","-1,551444653","2,639105735"
"5,467518667","-0,8125075255","2,603516039","-1,689131963","3,208057205"
"5,477472667","-2,160437279","2,896300744","-1,495540009","3,910586549"
"5,487426667","-3,037153153","3,232873494","-0,8657100981","4,519427428"
"5,497380667","-2,102944385","3,833616723","-0,8009820056","4,445285642"
"5,507334667","-1,29404525","3,394318042","-1,442395835","3,908510435"
"5,517288667","-1,272433502","2,523554488","-1,628459499","3,261793159"
"5,527242667","-0,5273824164","2,505543894","-2,139796754","3,336856689"
"5,537196667","-0,06815200277","2,513326246","-2,217592789","3,352487329"
"5,547150667","-0,1864193214","2,405421728","-1,865665251","3,04983814"
"5,557104667","-0,34344765","2,445032229","-1,707276458","3,001821412"
"5,567058667","-0,1787478111","2,593843575","-1,630323007","3,068864346"
"5,577012667","0,01621323265","2,626139793","-1,502849028","3,025793827"
"5,586966667","0,1345172792","2,555260137","-1,576723335","3,005579103"
"5,596920667","0,5855318432","2,508273374","-2,081438034","3,311595861"
"5,606874667","1,172540839","2,597976679","-2,726475967","3,944363833"
"5,616827667","0,5969980138","2,985093638","-2,707148581","4,073799712"
"5,626781667","-0,370286114","3,151398391","-2,622233561","4,116373704"
"5,636735667","-0,7268364606","3,263262936","-2,518760648","4,185848949"
"5,646689667","-0,5884853814","3,672483539","-1,473911743","4,000733209"
"5,656643667","-0,917992246","4,261546369","-0,03533121586","4,359442111"
"5,666597667","-0,9137188815","4,366767308","0,6716316551","4,511610355"
"5,676551667","-0,6533604218","4,340541961","0,8444180471","4,469924629"
"5,686505667","0,04241390707","4,064818845","0,3936368966","4,084054504"
"5,696459667","0,9889294238","3,537138915","-0,4026597351","3,6947893"
"5,706413667","1,186456116","3,520917862","-0,9784450006","3,842121201"
"5,716367667","0,5200979551","3,914140191","-0,8843551147","4,046366183"
"5,726321667","-0,03744537718","4,197956437","-0,9704378235","4,308826984"
"5,736275667","-0,01318541648","3,951638677","-0,623232497","4,000505073"
"5,746229667","0,2897674694","3,714544023","0,6184728634","3,776812302"
"5,756183667","1,020054372","3,672264561","1,349152626","4,043049682"
"5,766137667","1,085415426","3,407125491","1,579204309","3,909030187"
"5,776091667","0,9063752172","3,179088466","1,326007007","3,561799277"
"5,786044667","1,068348865","3,515246648","0,8339755046","3,767471756"
"5,795998667","1,497845273","3,474945591","0,8418832791","3,87653902"
"5,805952667","1,436423781","3,001737737","0,6586718863","3,392284094"
"5,815906667","1,185863135","2,912066884","0,5847993332","3,198186232"
"5,825860667","0,6635806239","3,235048951","0,3158250743","3,317472899"
"5,835814667","0,6145965249","3,55538983","0,373950491","3,62744603"
"5,845768667","2,794507152","3,493092425","2,281692891","5,021661812"
"5,855722667","4,406111467","2,8145976","6,58885719","8,411231597"
"5,865676667","2,482955515","3,186622311","9,837904083","10,63503581"
"5,875630667","1,964735357","4,055943357","6,19712824","7,662588333"
"5,885584667","0,3856667397","3,701554726","3,962112502","5,435860714"
"5,895538667","-1,736544258","2,73026584","6,894868298","7,61637357"
"5,905492667","-1,938269251","2,037315821","8,03176641","8,509806996"
"5,915446667","-1,543665078","1,805175805","7,322372852","7,697967637"
"5,925400667","-1,173333795","1,421849596","6,308121842","6,571968475"
"5,935354667","-0,8957565274","0,8299277696","5,058675937","5,203975605"
"5,945308667","-0,8949901767","0,6381663588","4,548399367","4,679337616"
"5,955262667","-0,7821560908","0,6710264683","6,067521197","6,154417774"
"5,965215667","-0,3742148582","0,8284426499","4,757312196","4,84338449"
"5,975169667","0,04508907218","1,306346914","3,537166105","3,77095735"
"5,985123667","0,01300090827","2,050761201","3,519047922","4,073019618"
"5,995077667","0,01094922194","2,579597418","2,133498718","3,347575168"
"6,005031667","-0,6210442496","2,951994596","1,643037778","3,435046025"
"6,014985667","-1,053804793","2,87330423","1,14785521","3,26863172"
"6,024939667","-0,9590734676","2,623641863","0,4995404971","2,837756023"
"6,034893667","-0,5795732746","2,435474224","-0,3394747227","2,52639723"
"6,044847667","-0,4690694503","2,33851774","-1,196187125","2,668249428"
"6,054801667","0,3888990439","2,076666559","-4,714323467","5,166104162"
"6,064755667","-0,2258508973","3,740153073","-4,419882245","5,794403567"
"6,074709667","-0,9543788843","4,594490922","-4,169039032","6,277027349"
"6,084663667","-0,8264805436","3,742084116","-4,528311843","5,932273743"
"6,094617667","-0,7299665482","2,773342278","-3,788405174","4,751451601"
"6,104571667","-1,36256263","2,044523246","-3,441649498","4,228664505"
"6,114525667","-1,208195114","1,738048308","-3,203925683","3,840011346"
"6,124479667","-0,6184082517","1,829917713","-3,011860437","3,578034502"
"6,134432667","-0,4866682903","2,018998541","-2,726925618","3,427728761"
"6,144386667","-0,2366317742","2,547699103","-2,229493627","3,393730565"
"6,154340667","0,3345165031","3,08166362","-1,586054322","3,481970745"
"6,164294667","0,8604679962","3,2276531","-2,00978099","3,898380348"
"6,174248667","0,53431546","2,781079313","-3,374942123","4,405692851"
"6,184202667","-1,142225584","1,882218134","-4,734934902","5,221784457"
"6,194156667","-2,313333344","0,996845165","-6,4455203","6,92025602"
"6,204110667","-1,868032496","0,4757269804","-6,888226445","7,152868315"
"6,214064667","-1,419301526","0,6400904582","-5,917097481","6,118510866"
"6,224018667","-2,099222632","1,13308909","-2,982868772","3,819441407"
"6,233972667","-1,518805349","1,438964689","0,4614517343","2,142504788"
"6,243926667","0,6753680259","1,027859528","2,340135811","2,643643848"
"6,253880667","1,17961385","0,8760204935","4,842549983","5,060552448"
"6,263834667","1,013354413","1,101830533","6,526173284","6,695659447"
"6,273788667","1,063148717","0,3042135638","7,779095943","7,857300095"
"6,283742667","1,403166134","-1,095865423","8,278849279","8,468125035"
"6,293696667","0,8313976134","-1,354715521","8,391888821","8,541093263"
"6,303650667","0,3858371129","-0,728194111","8,394286764","8,434642092"
"6,313604667","0,5671108481","-0,2575375436","8,497051579","8,519848933"
"6,323557667","0,4850697347","0,3065155944","7,953780341","7,974450838"
"6,333511667","-0,1057830382","0,9437319086","6,273743722","6,345209236"
"6,343465667","-1,06661882","1,484892521","3,925162193","4,330066945"
"6,353419667","-1,395498827","1,462811535","1,619943615","2,590646999"
"6,363373667","-2,362235655","2,150779725","-0,1966143805","3,200729281"
"6,373327667","-3,239266255","3,09306686","-1,544943134","4,737800941"
"6,383281667","-3,074299344","2,883724553","-2,364934437","4,833228595"
"6,393235667","-2,770737051","2,13336584","-3,04082462","4,634096242"
"6,403189667","-2,272534835","1,746161758","-3,371743696","4,425172428"
"6,413143667","-1,856079764","1,608063096","-3,239567387","4,065180914"
"6,423097667","-1,761122882","1,225727113","-3,269006363","3,910289422"
"6,433051667","-1,444150438","0,873415632","-3,778775979","4,13854724"
"6,443005667","-0,6419666836","0,9295188622","-4,35262991","4,496833738"
"6,452959667","0,01775649559","1,161229108","-4,849904611","4,987017452"
"6,462913542","1,137665268","1,274695059","-5,139601986","5,416146077"
"6,472867542","2,478265463","1,160464292","-4,643265764","5,389656207"
"6,482821542","2,914129782","0,9033350305","-3,76540866","4,846284034"
"6,492774542","1,946477572","0,6495193128","-3,10384591","3,720821107"
"6,502728542","1,021914006","0,5604039455","-2,462563058","2,724440793"
"6,512682542","0,6895773447","0,9902897054","-2,157222041","2,471800468"
"6,522636542","1,026681825","1,690522577","-2,552506099","3,2291221"
"6,532590542","1,569711354","2,075697676","-2,646712344","3,71181907"
"6,542544542","2,116000048","2,343158821","-2,83779292","4,245105196"
"6,552498542","2,140983739","2,616189294","-3,14065881","4,614325038"
"6,562452542","1,724594741","2,747268081","-3,218940749","4,569823681"
"6,572406542","0,9480072465","2,601789356","-1,954061118","3,389156303"
"6,582360542","-0,198937662","2,45649014","-0,5399488503","2,522987269"
"6,592314542","-0,7341751548","2,336113804","0,1751200157","2,45501688"
"6,602268542","-0,9544187184","2,301435137","0,9982471812","2,684029846"
"6,612222542","-0,4044755514","2,484438369","1,370253473","2,865942962"
"6,622176542","0,9026721025","2,752711547","1,81304031","3,417506833"
"6,632130542","1,34216915","2,913765793","2,525536401","4,082864587"
"6,642084542","0,9818434024","2,463390147","4,366001907","5,108256076"
"6,652038542","0,4213705694","0,8738315883","6,647119431","6,717539098"
"6,661992542","0,09820822611","-0,907123807","8,660207022","8,708140107"
"6,671945542","0,3234620861","-2,22978628","9,981584204","10,23272192"
"6,681899542","0,4258206294","-2,329223591","10,19691962","10,46822695"
"6,691853542","0,4150397159","-1,781012186","9,144119666","9,325190982"
"6,701807542","0,8610451895","-1,063206823","6,964908586","7,098010931"
"6,711761542","1,849448583","-0,4147985913","4,798472502","5,159249585"
"6,721715542","1,703261029","0,3539837478","2,945538393","3,420906174"
"6,731669542","0,8599484711","0,6651470929","1,068312612","1,524212539"
"6,741623542","-0,0532747858","0,1050375639","-0,5379005706","0,550643366"
"6,751577542","-0,8737403718","-0,623768979","-1,310821204","1,694332377"
"6,761531542","-1,359049184","-1,04182341","-1,377576526","2,19775517"
"6,771485542","-1,331738156","-0,860617758","-0,9177316064","1,832053695"
"6,781439542","-0,9776861782","-0,3140486902","-0,4927641588","1,138996646"
"6,791393542","0,0781979578","0,4157781096","-1,145241505","1,220886752"
"6,801347542","1,2796687","1,44242244","-2,545959556","3,193750857"
"6,811301542","1,809952396","2,601558391","-4,525301111","5,524706679"
"6,821255542","1,658046703","3,31579666","-5,973135442","7,030076341"
"6,831209542","0,9132600944","3,158104563","-5,865992231","6,724398359"
"6,841163542","0,188419124","2,710494942","-4,697044945","5,426280108"
"6,851117542","-0,4969371339","2,325182726","-3,349646484","4,107743029"
"6,861070542","-1,373510811","1,964418438","-1,84348033","3,023886815"
"6,871024542","-2,162872645","1,359049623","-0,3717051601","2,581317237"
"6,880978542","-2,282189904","0,9361551596","-0,1095130867","2,469163898"
"6,890932542","-1,881891274","1,454301351","-1,053078277","2,601053833"
"6,900886542","-1,361435287","2,171538949","-2,203833121","3,380231926"
"6,910840542","-0,4342251979","2,484352123","-3,292904518","4,147743622"
"6,920794542","0,06947369277","2,748526402","-4,406462885","5,193855902"
"6,930748542","-0,2804085257","2,627225329","-4,938489928","5,600859276"
"6,940702542","-0,8852200641","2,131987944","-4,869020328","5,388538402"
"6,950656542","-1,525150162","1,966873391","-4,078526473","4,777975737"
"6,960610542","-2,228129472","1,755513356","-2,73371599","3,939491236"
"6,970564542","-3,102855392","1,245268361","-1,589238716","3,701902831"
"6,980518542","-3,429392273","0,7151349396","-0,3140738332","3,517213629"
"6,990472542","-3,678261173","0,08412363578","2,003387645","4,189301147"
"7,000426542","-4,458667996","-0,231720844","4,609292271","6,417085794"
"7,010380542","-4,582936531","0,032419741","6,949546196","8,324695227"
"7,020334542","-4,66178448","0,09862586349","8,736425478","9,902883002"
"7,030288542","-4,810349074","-0,2453681722","8,539921026","9,80458642"
"7,040241542","-4,376431001","-1,484000236","6,82660147","8,243657722"
"7,050195542","-4,607287553","-2,858511944","6,221837988","8,252845393"
"7,060149542","-5,322713392","-3,614549034","6,867283473","9,410410452"
"7,070103542","-5,358853862","-3,552320626","6,010271108","8,80111671"
"7,080057542","-5,454457592","-2,548334695","3,542731485","6,985417934"
"7,090011542","-5,069966326","-1,545710288","1,106524166","5,414625986"
"7,099965542","-3,315432086","-0,6036459325","-0,4788781911","3,403792392"
"7,109919542","-0,6111429035","0,8630724192","-1,135117051","1,551412379"
"7,119873542","2,090715518","2,487313737","-1,821867852","3,72518771"
"7,129827542","4,066012262","3,259176024","-2,804444495","5,917735462"
"7,139781542","4,504651669","2,814383007","-4,029582939","6,667096597"
"7,149735542","4,734293755","1,913632592","-4,797125888","7,006278887"
"7,159689542","4,784649391","1,275243235","-4,548457255","6,723658119"
"7,169643542","4,675345635","0,4382768067","-3,817850583","6,052018377"
"7,179597542","3,982461982","-0,5345441227","-2,811955243","4,904368782"
"7,189551542","2,542588052","-1,329251335","-2,222976905","3,629502643"
"7,199505542","1,470124355","-1,812718129","-2,432993104","3,371448958"
"7,209459542","1,504884298","-2,059201657","-3,325257162","4,190742585"
"7,219412542","2,271640796","-1,69132043","-4,10046698","4,983447216"
"7,229366542","2,912168334","-0,835967651","-4,563612068","5,477784354"
"7,239320542","2,982560916","-0,5865457503","-4,490116076","5,422254873"
"7,249274542","2,932152362","-0,5219827686","-4,211767561","5,158388263"
"7,259228542","2,731896044","-0,4382408098","-4,32189519","5,131675071"
"7,269182542","2,563496818","-0,5834827595","-4,75474293","5,433189523"
"7,279136542","2,493396011","-0,4565029068","-5,000368087","5,606166211"
"7,289090542","2,795180751","-0,4119374025","-5,420699278","6,112831464"
"7,299044542","3,363808732","-0,4980944075","-5,523037246","6,485926892"
"7,308998542","3,474141599","-0,6914816366","-4,912623015","6,056539572"
"7,318952542","2,898056079","-1,113928861","-4,077408485","5,124922097"
"7,328906542","2,323981124","-1,965272277","-2,381109005","3,864306339"
"7,338860542","1,931466015","-2,865379206","0,2387722206","3,463808762"
"7,348814542","1,664529803","-2,977174169","2,83120954","4,432829001"
"7,358768542","1,966724433","-2,454296265","4,73734337","5,686299092"
"7,368722542","2,380415087","-1,218311308","4,976555886","5,649492625"
"7,378676542","2,010726339","0,1065103222","3,506446588","4,043455519"
"7,388630542","0,8240912982","-0,400983046","3,186243119","3,315427436"
"7,398584542","-1,38156725","-2,66475042","6,400699638","7,069552936"
"7,408537542","-2,091416892","-5,73631853","12,05152544","13,50994598"
"7,418491542","-1,629990739","-7,229661155","17,87369162","19,34925638"
"7,428445542","-0,4126461216","-5,314706215","18,82225034","19,56255317"
"7,438399542","0,624175726","-1,685428337","14,08272069","14,19694636"
"7,448353542","1,795045943","1,714273821","6,814091937","7,252087534"
"7,458307542","4,060912321","5,445599061","-0,6431106913","6,823426512"
"7,468261292","5,571734027","8,021646634","-6,048074527","11,48783009"
"7,478215292","5,309169486","7,575263175","-8,765277395","12,74370357"
"7,488169292","3,971061666","5,389647054","-8,644136535","10,93337654"
"7,498123292","2,818528683","3,409241598","-6,423447645","7,799212259"
"7,508077292","1,959314257","1,56789901","-2,912450169","3,844422668"
"7,518031292","0,7153697053","0,6974335905","-0,2403182244","1,027579816"
"7,527985292","-0,3661670429","0,8462412089","1,004042941","1,363196506"
"7,537939292","-0,7439402242","0,9355141586","0,5062408215","1,298042206"
"7,547893292","0,09402165625","1,264674978","-0,9922865295","1,610240798"
"7,557847292","0,8103811855","1,859529475","-2,64158726","3,330548121"
"7,567801292","0,5629917039","1,396500455","-3,812027341","4,098624845"
"7,577755292","-0,6351442254","0,6818749537","-3,459343758","3,582655562"
"7,587709292","-1,942634636","0,5070014346","-2,204680967","2,981861491"
"7,597662292","-2,615989904","0,581531836","-1,41347843","3,029769583"
"7,607616292","-2,842169268","0,7247118017","-0,778842693","3,034753579"
"7,617570292","-2,448993425","1,066577743","-0,5141936195","2,720211748"
"7,627524292","-2,022992628","1,673820737","-1,468103703","3,008239272"
"7,637478292","-1,454941621","2,459850535","-3,017129363","4,155813923"
"7,647432292","-0,8195723507","3,259225141","-4,172781835","5,35783124"
"7,657386292","-1,935646482","3,505244108","-4,878499249","6,311356311"
"7,667340292","-2,981061398","2,809817501","-5,387249111","6,767884044"
"7,677294292","-3,481271401","2,193276996","-5,222152392","6,648352439"
"7,687248292","-3,822491518","1,712033753","-3,998545334","5,790584233"
"7,697202292","-4,244421629","1,052795198","-2,421104545","4,998523773"
"7,707156292","-4,42740001","0,4059680166","-1,387610348","4,657482513"
"7,717110292","-4,023297767","-0,1296144254","-0,5891578478","4,068271352"
"7,727064292","-3,879983681","-0,9101945454","0,3559802431","4,001181002"
"7,737018292","-4,27193541","-2,028252345","1,408797734","4,934364273"
"7,746972292","-5,716413438","-2,387086029","2,977162474","6,873067634"
"7,756926292","-7,337023051","-1,77182855","4,408201262","8,740910824"
"7,766879292","-6,313738677","-1,49905784","5,59036501","8,565200023"
"7,776833292","-3,782576962","-1,231972962","5,719215424","6,966711629"
"7,786787292","-0,797725545","-0,8811297905","5,800154337","5,920687974"
"7,796741292","1,194661587","0,1750096495","6,324346111","6,438571147"
"7,806695292","0,5350380662","0,5035810693","6,375184143","6,417385174"
"7,816649292","-1,681160747","-0,1057543503","5,20405409","5,469887057"
"7,826603292","-3,857585921","0,6185452227","3,057693837","4,961155"
"7,836557292","-4,191402293","1,391773712","1,034201126","4,535907761"
"7,846511292","-2,877638186","1,663101182","-0,4122316271","3,349125556"
"7,856465292","-1,115499935","1,561055136","-0,8683851993","2,106021391"
"7,866419292","-0,014855363","0,8995600681","-1,1596163","1,467698525"
"7,876373292","0,6755370104","0,1651815033","-2,100067263","2,212220082"
"7,886327292","1,458025442","-0,3896574278","-2,698392375","3,09176204"
"7,896281292","1,947805182","-0,7770379499","-2,573227462","3,319522944"
"7,906235292","2,239730347","-0,983035138","-2,787866469","3,708766582"
"7,916189292","2,63414317","-1,109291434","-3,054996516","4,183568027"
"7,926143292","2,88028639","-1,137229723","-3,082145138","4,369091414"
"7,936097292","2,854853633","-1,353758624","-2,917819667","4,300758455"
"7,946051292","2,635108837","-1,49861886","-3,028570025","4,285078"
"7,956005292","2,185716547","-1,358283784","-3,34671352","4,221703809"
"7,965958292","1,873586182","-1,018529637","-3,940845594","4,480847219"
"7,975912292","1,858189878","-0,7122208335","-4,755446935","5,15503673"
"7,985866292","2,141210319","-0,5305659695","-5,10944848","5,565316311"
"7,995820292","2,359163235","-0,1497231827","-4,827412711","5,375126202"
"8,005774292","2,577652634","0,4439191871","-4,125155679","4,884492474"
"8,015728292","3,026036719","0,8292326818","-3,417039737","4,6390393"
"8,025682292","3,024247178","1,404085901","-3,09021605","4,546093207"
"8,035636292","2,815498071","1,914317155","-3,302776957","4,743413875"
"8,045590292","2,458358618","1,988380766","-3,469495109","4,69410071"
"8,055544292","1,536018528","1,887253464","-3,912965485","4,607860398"
"8,065498292","1,015494859","1,639535588","-4,739920238","5,117240528"
"8,075452292","1,225673684","1,421399945","-4,210709215","4,610067882"
"8,085406292","1,580823111","1,031569294","-1,944616111","2,71010493"
"8,095360292","1,362362217","0,3070980319","1,882406999","2,343884835"
"8,105314292","0,8652347195","0,1949749674","5,309722633","5,383289031"
"8,115268292","0,5050213847","-0,02658948228","6,15334312","6,174089823"
"8,125222292","-1,28721424","-0,2885650626","4,048416821","4,257918394"
"8,135176292","-1,975324664","0,2301370525","2,089334698","2,884473968"
"8,145129292","-0,5872458813","-0,6717849983","2,059855961","2,244807205"
"8,155083292","-0,04878715742","-2,74417315","5,927074585","6,531698064"
"8,165037292","-0,4106448024","-4,143369463","11,24371155","11,98987861"
"8,174991292","-1,45367833","-4,590659241","13,82373932","14,63841186"
"8,184945292","-2,192189561","-4,496971936","11,45630462","12,50101464"
"8,194899292","-1,835145417","-2,977837828","4,299743013","5,542839237"
"8,204853292","0,01844540723","-0,5610578835","-4,221729462","4,258887863"
"8,214807292","1,268048529","0,9532573883","-7,733228629","7,894268285"
"8,224761292","0,4563910422","0,2782793717","-3,727616351","3,765747715"
"8,234715292","-0,874279412","-1,654573018","2,257629844","2,932382798"
"8,244669292","-1,759746155","-2,505634233","5,501315424","6,295981325"
"8,254623292","-1,31634653","-2,048410328","5,785700605","6,277187631"
"8,264577292","-0,7324361198","-0,9682484798","3,440087122","3,648036074"
"8,274531292","-0,8192345278","0,01127584375","0,5013502103","0,9605333881"
"8,284485292","-1,170351057","0,6715492094","-1,882018744","2,315749228"
"8,294439292","-1,336218292","1,085990499","-3,25267392","3,680318236"
"8,304393292","-1,264375746","1,211381627","-3,499849759","3,913443472"
"8,314347292","-1,116222797","1,133554236","-2,978510842","3,376747751"
"8,324301292","-0,9872755388","1,010145461","-2,822007776","3,155762148"
"8,334255292","-0,8151473241","0,932453799","-3,384122252","3,603639641"
"8,344208292","-0,5982129556","0,9715683827","-4,082831778","4,239259274"
"8,354162292","-0,1170563969","1,260855576","-4,739893926","4,906124072"
"8,364116292","0,5123348627","1,548069347","-5,12055819","5,373929837"
"8,374070292","1,130798005","1,80088658","-5,40696943","5,810095957"
"8,384024292","1,079865979","1,733837435","-6,057927085","6,39302615"
"8,393978292","0,5216923812","1,501338254","-6,920184402","7,100361375"
"8,403932292","-0,1392418934","1,721881049","-7,303017983","7,504554238"
"8,413886292","-1,088757036","1,876820569","-6,765777563","7,105180742"
"8,423840292","-2,428506974","1,770150106","-5,939663056","6,656626378"
"8,433794292","-4,222216243","1,681554849","-5,006407676","6,761571898"
"8,443748292","-6,170417574","0,8862926627","-3,232223284","7,021882588"
"8,453702292","-7,806249243","-0,3087719435","-0,1078805441","7,813098334"
"8,463656792","-8,150535055","-0,6701841769","3,673267066","8,965113465"
"8,473610792","-8,249114433","-0,2509822302","7,709207683","11,29348326"
"8,483564792","-7,171245716","1,208543462","9,303748654","11,80877138"
"8,493518792","-4,429657913","2,482799394","8,643514976","10,02479492"
"8,503472792","-1,839601726","2,984247546","8,39951359","9,101741398"
"8,513426792","1,007663245","2,478493797","9,58438226","9,950814039"
"8,523379792","3,470343247","0,8767622128","11,22381231","11,78074518"
"8,533333792","3,667066094","-0,7775811562","11,85027597","12,42904046"
"8,543287792","1,657228531","-1,856490093","11,20805991","11,48100905"
"8,553241792","-0,6913978752","-1,798838447","9,587457311","9,779222284"
"8,563195792","-1,171304738","-1,005329256","7,586478134","7,741917862"
"8,573149792","-0,2512811691","0,1533928587","5,311553396","5,31970592"
"8,583103792","0,6567370427","1,014882802","3,223382294","3,442598445"
"8,593057792","0,9338202202","1,087981403","1,726146592","2,243948706"
"8,603011792","1,193798172","0,8500540321","0,1403963256","1,472228604"
"8,612965792","1,848432776","-0,05005815938","-1,990412673","2,716790782"
"8,622919792","2,704382263","-0,7266518348","-3,482302265","4,468571962"
"8,632873792","3,085662823","-0,8096824432","-4,081833073","5,180565795"
"8,642827792","2,69044981","-0,7737402664","-4,42469158","5,235942108"
"8,652781792","2,187391335","-0,6918110541","-4,829215407","5,346457223"
"8,662735792","2,131477336","-0,331907841","-4,956777679","5,405830501"
"8,672689792","2,529382992","-0,04429226571","-4,137928922","4,849968648"
"8,682643792","2,32052308","-0,1268549781","-2,867544723","3,69103404"
"8,692597792","1,737059397","-0,1592081522","-2,499356663","3,047869143"
"8,702551792","0,9880518298","0,4046346322","-3,175083123","3,349795283"
"8,712505792","0,5306813424","1,488122815","-4,537342867","4,804540821"
"8,722458792","0,6341177467","2,570698541","-6,19255981","6,734864016"
"8,732412792","1,227253236","3,217118171","-7,717724152","8,450992008"
"8,742366792","1,672621473","3,337596542","-8,587584604","9,363964043"
"8,752320792","1,29278152","2,626488287","-8,327935485","8,827470431"
"8,762274792","0,1553651794","1,070073136","-6,889809287","6,974142733"
"8,772228792","-0,8921980581","-0,6264008108","-5,427476785","5,535873879"
"8,782182792","-1,41851873","-2,065241539","-3,673492184","4,446567533"
"8,792136792","-1,40033652","-3,351159451","-1,532148841","3,941914777"
"8,802090792","-0,9000840517","-4,397138915","1,115235348","4,624795327"
"8,812044792","0,04058537766","-5,013300959","4,76666131","6,917795438"
"8,821998792","1,046644585","-4,972497919","8,185956318","9,634888753"
"8,831952792","-0,1292536522","-2,373832876","8,75491379","9,071951526"
"8,841906792","-1,203482331","1,334820077","3,837696033","4,237691022"
"8,851860792","-1,445033806","3,36706417","-4,348391848","5,686277823"
"8,861814792","-1,742038155","3,228959368","-8,027896138","8,826550399"
"8,871768792","-0,9597214121","2,070678864","-3,654830795","4,308893627"
"8,881722792","0,1392091215","-0,9849644999","5,199410816","5,293713922"
"8,891676792","1,507213828","-5,381280273","13,64429061","14,74437307"
"8,901629792","1,231683964","-6,574309902","18,27323655","19,4589252"
"8,911583792","2,041833819","-5,546158891","16,63657282","17,65515559"
"8,921537792","3,002349356","-3,5745456","10,41838759","11,41640389"
"8,931491792","3,338011694","-1,28479437","3,436954184","4,960410538"
"8,941445792","3,867196405","0,58398964","-1,836514542","4,320768172"
"8,951399792","3,076791135","1,670264168","-4,111121777","5,399791509"
"8,961353792","1,474601129","1,219286551","-3,533036801","4,017892137"
"8,971307792","-0,1453380634","0,2347491901","-1,569775089","1,593870812"
"8,981261792","-1,288926889","-0,5568846526","-0,02794969082","1,40436257"
"8,991215792","-1,819787997","-1,024979482","0,5957903445","2,171906404"
"9,001169792","-1,570023888","-0,8904036207","0,6131179833","1,906228548"
"9,011123792","0,5901292165","-0,2824166422","0,6299070936","0,9081820294"
"9,021077792","2,44362378","0,8753555189","0,6614919984","2,678640724"
"9,031031792","1,836398036","1,302796923","-0,325727334","2,275024366"
"9,040985792","1,062024224","1,063201122","-1,686334655","2,258764408"
"9,050939792","0,8667878131","1,240815999","-2,237780886","2,701593742"
"9,060893792","0,8063267992","1,242504382","-2,408760488","2,827738873"
"9,070847792","0,4855090433","1,096783363","-3,360379048","3,568024681"
"9,080801792","0,3765272858","1,356258893","-5,041321401","5,23413149"
"9,090754792","0,4502053459","1,641043585","-6,31158047","6,536953184"
"9,100708792","0,7471827976","1,688286456","-6,76747501","7,014792321"
"9,110662792","1,643865743","1,784830418","-6,337581868","6,786225618"
"9,120616792","1,715264924","1,914511867","-5,306919478","5,896684135"
"9,130570792","0,4899836251","1,570595307","-4,473384853","4,766343002"
"9,140524792","-1,272635523","0,7948279573","-3,062353483","3,410184967"
"9,150478792","-2,846073454","0,3468587328","-2,611213898","3,877999885"
"9,160432792","-3,063582568","-0,1718769307","-2,683873739","4,076549776"
"9,170386792","-2,93129136","-0,6109755635","-0,8490250683","3,112330918"
"9,180340792","-3,170499783","-1,119743917","1,538083765","3,697512269"
"9,190294792","-3,159223427","-1,554626854","2,28751204","4,198841346"
"9,200248792","-2,958286785","-1,971620015","2,033722415","4,095701777"
"9,210202792","-4,247176545","-1,572345379","1,926506699","4,921606105"
"9,220156792","-5,937932864","1,173428447","0,5950068176","6,081941642"
"9,230110792","-5,744825644","3,139101112","-0,5363954973","6,568462347"
"9,240064792","-3,723202872","2,117337745","0,5030499959","4,312588324"
"9,250018792","-2,222397446","0,913834291","3,178998418","3,984993659"
"9,259972792","-1,827175369","-1,005452705","7,393511832","7,682025916"
"9,269926792","-3,104872096","-3,238629785","11,12984404","12,00009925"
"9,279879792","-5,164408214","-3,425304776","11,0914559","12,70528312"
"9,289833792","-5,484491231","-1,736188162","7,17937627","9,199860706"
"9,299787792","-3,678352682","1,063835838","2,138855937","4,38596966"
"9,309741792","-1,372584319","3,083352004","-1,67080562","3,765984428"
"9,319695792","1,230496394","3,721372694","-2,824565933","4,831242988"
"9,329649792","2,96951607","3,303302914","-0,9257288432","4,537268972"
"9,339603792","2,426173204","1,960304191","0,6927126217","3,195146274"
"9,349557792","1,312063591","-0,0409727557","0,8874786973","1,584552956"
"9,359511792","0,5651184093","-1,055908037","0,4888512021","1,293551737"
"9,369465792","1,01157664","-1,059480393","0,02019335926","1,464989343"
"9,379419792","1,554989527","-1,015669399","-0,914624396","2,070293347"
"9,389373792","2,323847953","-1,007942303","-2,342140236","3,44990404"
"9,399327792","3,084082906","-1,126526249","-2,755909681","4,286684841"
"9,409281792","2,985954348","-1,766119036","-1,912148861","3,961238832"
"9,419235792","2,760280767","-2,37953128","-0,7358095247","3,717893851"
"9,429189792","1,609682043","-2,905187343","-0,3843819237","3,343492073"
"9,439143792","0,7903939406","-2,88371929","-1,72839894","3,453682444"
"9,449097792","0,913065309","-1,883028266","-4,116864327","4,618230786"
"9,459051792","1,36164067","-1,082670816","-6,026988882","6,273024502"
"9,469004208","1,429182736","-0,8113478764","-7,158297057","7,344526222"
"9,478958208","1,73115444","-0,318139183","-7,775047331","7,971792097"
"9,488912208","2,076680593","-0,1533441807","-7,43164211","7,71786377"
"9,498866208","2,022298271","-0,4267008546","-7,112056106","7,406288273"
"9,508820208","1,83095881","-0,7488185562","-7,538766609","7,793981099"
"9,518774208","1,873039906","-0,7166759732","-7,911742954","8,161959293"
"9,528728209","1,963768666","-0,5728034779","-7,697408001","7,964582923"
"9,538682208","2,2651384","-0,2263508342","-6,805712292","7,176336564"
"9,548636209","3,188847468","0,5156691644","-5,29728502","6,204505738"
"9,558590208","3,926300061","1,176047268","-2,646051609","4,878576479"
"9,568544209","3,169401676","1,235306752","0,3350723541","3,418093509"
"9,578498208","1,128551066","0,5588819884","3,141704292","3,384713052"
"9,588452208","-1,64605304","0,767123411","4,18922596","4,565915361"
"9,598406208","-2,793893779","3,490743013","1,971585808","4,886540682"
"9,608360208","-1,61102281","5,285587665","-0,2537755913","5,531476612"
"9,618314208","0,2394238928","4,562868887","1,350227929","4,764473921"
"9,628268208","0,7214595073","2,274538384","7,39073265","7,766399281"
"9,638222208","0,4709313134","-0,1149838878","13,89776741","13,90621935"
"9,648176208","-0,1783823966","-0,8802613328","17,57860604","17,60153603"
"9,658130208","-0,09711757421","-0,455843816","16,00479988","16,0115847"
"9,668084208","0,5917776196","0,03768837467","11,1141583","11,12996567"
"9,678037209","1,476007385","1,101403467","6,454264226","6,711871132"
"9,687991208","2,974570404","1,622220082","2,755315604","4,367084973"
"9,697945209","3,28277948","1,380847604","0,594844265","3,610709199"
"9,707899208","1,565316441","0,211714084","-0,2031363648","1,592577407"
"9,717853209","0,1920562201","-1,296906292","-0,182095744","1,32363529"
"9,727807208","-0,410437007","-2,029430705","0,4085548979","2,110441809"
"9,737761208","-0,2371232327","-1,586075811","0,7948055917","1,789854696"
"9,747715208","1,12805186","-0,7547534801","0,6957081503","1,525176595"
"9,757669208","2,044158818","0,03380787","-0,3727424562","2,078139837"
"9,767623208","2,963073024","0,9596855249","-2,424566097","3,947064581"
"9,777577208","2,664347839","1,287045986","-4,17461903","5,116901487"
"9,787531208","1,537408558","0,8155677389","-5,157005639","5,442745904"
"9,797485208","0,8778025787","0,3976757146","-5,701567358","5,782434926"
"9,807439208","0,5926686622","0,08467148334","-6,128042802","6,15721804"
"9,817393208","0,3294121031","-0,5248147944","-6,242669279","6,27334541"
"9,827347209","0,160652177","-1,310589069","-5,845964348","5,993225508"
"9,837301208","-0,01727632955","-1,592462432","-5,069393299","5,313660084"
"9,847255209","-0,3387406779","-1,265729669","-4,432653733","4,622254424"
"9,857209208","-0,5399629567","-1,1767311","-4,347721757","4,536401718"
"9,867162208","-0,8696954872","-0,9922980778","-4,736928218","4,917266991"
"9,877116208","-1,873920496","-0,6925626406","-4,962389252","5,349441852"
"9,887070208","-2,945961147","-0,7476575916","-4,35696445","5,312327002"
"9,897024208","-3,718132752","-0,8529026493","-2,620483489","4,62805443"
"9,906978208","-3,857605217","-0,739950669","-0,6661399502","3,984016496"
"9,916932208","-3,987209921","-0,7260481828","1,447116877","4,303386594"
"9,926886208","-3,97305849","-1,167951652","3,464516205","5,399275633"
"9,936840208","-5,765882052","-0,7476485284","5,107438207","7,738882297"
"9,946794208","-8,848268681","0,1467866014","5,413296703","10,37387035"
"9,956748208","-9,660018334","-0,4822061339","4,247884058","10,56375861"
"9,966702208","-9,201619431","0,6509009367","0,9342382962","9,271799899"
"9,976656209","-4,078569742","2,1502181","0,2555110449","4,61773266"
"9,986610208","-1,686790446","1,678484768","5,266414645","5,779074004"
"9,996564209","-3,615436934","-0,2889604805","10,16224329","10,79009133"
"10,00651821","-5,763042644","-1,391076431","10,96592437","12,46592361"
"10,01647221","-5,550112193","-0,4994567357","8,722076996","10,35025746"
"10,02642621","-4,220277599","1,009452054","5,715546296","7,176155372"
"10,03638021","-2,650952745","1,739294642","2,948408791","4,329643254"
"10,04633421","0,3955967371","2,521866104","0,5483489603","2,610936998"
"10,05628721","2,463053055","3,410816545","-0,9523406911","4,313612483"
"10,06624121","3,021434083","3,300090162","-1,294961801","4,657959323"
"10,07619521","2,227758904","2,29793821","-1,685304376","3,617137071"
"10,08614921","1,239030405","1,269368391","-2,18121843","2,811442032"
"10,09610321","0,7492790245","0,7770489134","-2,369923282","2,604181336"
"10,10605721","0,6888984098","0,5625269964","-2,82052083","2,957423776"
"10,11601121","0,8018642043","0,3693719749","-4,038135077","4,13351627"
"10,12596521","2,061341884","0,4191994616","-5,325389078","5,72578618"
"10,13591921","2,789098477","0,5704651764","-6,224253473","6,844401518"
"10,14587321","2,662295466","0,04312935501","-6,8950098","7,391267647"
"10,15582721","2,538119025","-0,9345607701","-7,00580869","7,509780783"
"10,16578121","1,882307304","-1,74168396","-6,435537933","6,927675822"
"10,17573521","0,6174367368","-2,510075778","-5,571416523","6,141855633"
"10,18568921","0,5150910209","-2,776015917","-4,961678815","5,708751159"
"10,19564321","0,274180035","-2,298725537","-4,962868724","5,476255998"
"10,20559721","-0,3808168763","-2,427131855","-5,742140602","6,245652026"
"10,21555121","-0,009224128872","-2,462194684","-6,26043429","6,727222699"
"10,22550521","1,00573571","-1,826013235","-6,513514647","6,838983968"
"10,23545921","2,153971136","-1,391856888","-7,090521396","7,540049795"
"10,24541321","3,254818971","-1,212088044","-7,292383652","8,077243546"
"10,25536621","3,598941938","-1,331283827","-5,724803023","6,891884311"
"10,26532021","3,825575047","-2,208009349","-3,415117173","5,5833104"
"10,27527421","3,776598476","-3,356501467","0,6923167652","5,099813786"
"10,28522821","2,619364332","-4,608211413","5,971660774","7,984824001"
"10,29518221","1,450416607","-5,154388425","10,35125103","11,65417634"
"10,30513621","0,480643027","-4,413395344","12,73684134","13,4883729"
"10,31509021","1,681349465","-2,407204544","11,11573705","11,49700743"
"10,32504421","1,865512785","0,5242923456","5,547027787","5,875758477"
"10,33499821","1,213207347","1,61083833","0,7966533118","2,168254757"
"10,34495221","0,4691077861","1,836267059","1,023662104","2,154024821"
"10,35490621","0,4451706009","0,1273813006","5,832469559","5,850820799"
"10,36486021","0,7061351976","-2,026168982","10,21484367","10,43776886"
"10,37481421","0,8522464456","-2,241036908","11,42892795","11,6777123"
"10,38476821","1,239472747","-2,058222102","11,81069383","12,05259556"
"10,39472221","0,5543488614","-1,170701671","10,940075","11,01649155"
"10,40467621","0,03063473225","-0,3312319759","7,636345528","7,643587256"
"10,41463021","0,1706333741","0,5391337484","3,834725062","3,876196235"
"10,42458421","0,4537956825","1,384033021","0,2731672972","1,48192385"
"10,43453821","0,8298270513","1,588084768","-2,363480819","2,965917691"
"10,44449221","1,371527289","1,517400409","-3,376465323","3,947671362"
"10,45444521","1,645289833","1,624446848","-2,793280991","3,626048109"
"10,46439892","1,377577988","1,481128376","-2,368125263","3,11439876"
"10,47435292","1,090733468","1,060836508","-2,589954007","3,003820127"
"10,48430692","1,083545194","0,50123005","-3,01245159","3,240396015"
"10,49426092","1,459567353","0,2969451459","-3,681029245","3,970955751"
"10,50421492","1,646403143","0,6743250288","-4,948623737","5,258729356"
"10,51416892","1,644143486","1,123782223","-6,881574068","7,163948349"
"10,52412292","0,9731893039","1,1301782","-7,920241297","8,059443057"
"10,53407692","0,0745145043","0,9805830351","-6,927727895","6,997178667"
"10,54403092","-0,5204173958","0,729685955","-5,368052702","5,442358466"
"10,55398492","-1,326808514","0,4365560077","-4,277678545","4,499948413"
"10,56393892","-2,155047462","0,09965278074","-3,557990963","4,160944597"
"10,57389292","-2,239392086","-0,1376305926","-3,097806321","3,824947463"
"10,58384692","-2,546962646","-0,02326318402","-3,64056125","4,44311221"
"10,59380092","-2,541277691","0,6518157336","-5,129382808","5,761382129"
"10,60375492","-2,95552573","1,430684154","-6,119477801","6,944782073"
"10,61370892","-3,129801992","1,807341321","-6,134487019","7,119977117"
"10,62366292","-3,095866507","2,108569553","-5,48818901","6,644597324"
"10,63361692","-3,855932329","1,851736306","-4,466259436","6,184223057"
"10,64356992","-4,331646007","0,7111133708","-3,01351169","5,32448045"
"10,65352392","-4,95777463","-0,2626174584","-1,207012661","5,109342107"
"10,66347792","-5,079623002","-1,07459318","0,9815504569","5,284009997"
"10,67343192","-4,214004121","-1,726609984","3,331380367","5,642438118"
"10,68338592","-3,735916473","-1,564678656","5,559356056","6,878352343"
"10,69333992","-4,812663986","-1,330137773","7,545115516","9,047638879"
"10,70329392","-5,669982453","-1,553645691","7,643977899","9,643283366"
"10,71324792","-3,727108228","-1,892042479","6,975745815","8,132170077"
"10,72320192","-1,620282168","-1,290323789","6,636175783","6,951911881"
"10,73315592","0,3541842708","-0,7074430735","7,071824924","7,115941958"
"10,74310992","0,4650467487","-1,674672676","9,617161751","9,772952328"
"10,75306392","-1,316153426","-2,146144053","12,3169329","12,57159617"
"10,76301792","-2,284554079","-1,670135383","12,38846774","12,70758326"
"10,77297192","-2,434827375","-0,8128177933","9,795579012","10,12632338"
"10,78292592","-2,044981229","0,1398773852","7,356329387","7,636563099"
"10,79287992","-0,4019952356","0,690139993","5,45807468","5,51620092"
"10,80283392","1,992015395","1,463247591","3,047058921","3,923491674"
"10,81278792","3,538846887","2,778990103","-0,2413982052","4,506051085"
"10,82274192","3,094988548","2,99250703","-2,18074656","4,825941151"
"10,83269492","1,937914179","1,573092214","-2,021782401","3,21212306"
"10,84264892","0,7301745629","0,3461698578","-1,8661494","2,033593383"
"10,85260292","0,4852508522","0,139670613","-2,834372883","2,879000853"
"10,86255692","0,9598455193","0,1646689948","-2,782950715","2,94842907"
"10,87251092","1,397159143","-0,02271416701","-2,09984273","2,522282517"
"10,88246492","1,461992632","-0,2966785128","-2,320899056","2,758987681"
"10,89241892","1,730288175","-0,4807021204","-3,437629538","3,878436352"
"10,90237292","1,981949267","-0,4637939827","-3,930656821","4,426430933"
"10,91232692","1,737011742","-0,4790298167","-4,073782042","4,454478588"
"10,92228092","1,487677111","-0,6092516582","-4,512131428","4,789958329"
"10,93223492","1,597087433","-0,2582657778","-5,501600769","5,734544489"
"10,94218892","2,083648281","0,352381428","-6,29814006","6,64321692"
"10,95214292","2,562963844","0,4030731698","-6,055678246","6,588056668"
"10,96209692","2,352944868","0,2987516432","-6,022528626","6,472746955"
"10,97205092","1,653487483","0,1623359558","-7,455784678","7,638658193"
"10,98200492","1,032271983","-0,1359455712","-8,343691392","8,408403694"
"10,99195892","0,3439718163","-0,4590290867","-8,446938602","8,466392152"
"11,00191292","0,0466075347","-0,7789654845","-8,313492277","8,350036726"
"11,01186692","0,1831984923","-0,9721446258","-6,893008298","6,963633409"
"11,02182092","0,5450695859","-0,9838215154","-4,315789527","4,459937765"
"11,03177392","0,6496008083","-1,316807583","-0,7225609034","1,636477216"
"11,04172792","-0,04362432182","-2,03919921","4,033726861","4,520087265"
"11,05168192","-0,8255086633","-2,85451508","8,252004712","8,770707078"
"11,06163592","-1,771839952","-1,848255166","8,564530787","8,939052051"
"11,07158992","-1,775574568","1,385750202","2,601629142","3,441139762"
"11,08154392","-0,6126091294","3,756706541","-4,913708843","6,215518367"
"11,09149792","-0,8027116851","2,671315381","-5,182617028","5,885557848"
"11,10145192","-1,578985769","-1,620200746","4,645630378","5,167216671"
"11,11140592","-2,40243614","-4,260094213","14,08500461","14,90997844"
"11,12135992","-2,150398048","-3,396382986","14,7322411","15,27084009"
"11,13131392","-0,4819926009","-2,167190959","9,333794571","9,59420422"
"11,14126792","1,64103686","-0,5973663884","4,624461703","4,943227146"
"11,15122192","3,967943931","1,228820728","3,006469889","5,127713"
"11,16117592","5,466562498","1,960122488","2,954933115","6,515904805"
"11,17112992","5,169985288","1,105240849","2,178547422","5,718074334"
"11,18108392","3,255038827","-0,6575532409","1,393392075","3,601276927"
"11,19103792","0,899386552","-1,954823449","1,518235391","2,633490002"
"11,20099192","-0,3039172196","-1,992962206","1,463125969","2,490984068"
"11,21094592","0,1180756579","-1,127353045","1,158335175","1,620681069"
"11,22089892","1,214460771","-0,4364724656","0,1363950759","1,297700579"
"11,23085292","1,663503909","0,08581804924","-2,137331568","2,709759441"
"11,24080692","1,452062744","0,2779457881","-3,636548306","3,925585772"
"11,25076092","0,9022812892","0,1916667224","-3,366458398","3,49054291"
"11,26071492","0,3558263882","0,02705049869","-3,079054885","3,099665003"
"11,27066892","-0,1448416347","0,05076092161","-3,308560438","3,312118347"
"11,28062292","-0,9005111177","-0,01135724796","-3,400626018","3,517855394"
"11,29057692","-1,419795323","-0,01859107599","-3,674010247","3,938846999"
"11,30053092","-1,324307076","0,2921149438","-4,485954612","4,686460195"
"11,31048492","-0,743333941","0,6894348188","-5,50449631","5,597083646"
"11,32043892","-0,3394956631","1,077505385","-5,835442868","5,943792445"
"11,33039292","-0,4888224777","1,306064347","-5,53834818","5,711221591"
"11,34034692","-0,7846053433","1,314299858","-5,35311482","5,567659108"
"11,35030092","-1,501800622","1,085490782","-5,150475469","5,473672707"
"11,36025492","-1,97779292","1,01987764","-4,990528978","5,464173745"
"11,37020892","-1,590758115","1,045819104","-4,989360119","5,340221285"
"11,38016292","-0,7961632421","1,120392885","-4,808183557","5,000778464"
"11,39011692","-0,147120112","1,427181672","-4,17137441","4,411219369"
"11,40007092","0,2659708","1,522974852","-2,638636755","3,058201561"
"11,41002392","1,188026313","-0,01567928136","-0,1847264063","1,202404343"
"11,41997792","0,006177875698","-2,070474212","5,505480981","5,881940365"
"11,42993192","-1,826260865","-3,432131108","9,737564108","10,48498486"
"11,43988592","-3,333712821","-3,369086722","10,19826681","11,24584512"
"11,44983992","-3,483307694","-1,505232646","8,668821725","9,462960843"
"11,45979392","-2,40519164","0,7509292549","7,405525521","7,822445258"
"11,46974842","-1,190264919","1,954025158","5,500115576","5,957030824"
"11,47970242","-0,6378538983","2,045996598","4,233324491","4,74489156"
"11,48965642","-1,79372111","1,219010124","5,521885929","5,932507507"
"11,49961042","-2,934837989","1,605166385","7,254820554","7,988883177"
"11,50956442","-3,090977065","3,172671439","6,238606634","7,651156514"
"11,51951842","-3,198158867","3,463411666","2,989584884","5,582209086"
"11,52947242","-2,700090407","2,678418871","0,8562662601","3,898410928"
"11,53942642","-0,4851860577","1,667055801","0,3887006772","1,779204533"
"11,54938042","1,736762213","1,029381631","1,210187114","2,353831425"
"11,55933442","1,870063527","0,2299025244","2,156611592","2,863732935"
"11,56928842","0,9761468987","-1,265407195","3,036600006","3,4314804"
"11,57924242","-0,6163455733","-2,388901005","3,407155019","4,206594252"
"11,58919642","-1,5689059","-2,425060479","2,488123577","3,812235956"
"11,59915042","-1,693694692","-1,609779546","0,3475871497","2,362373536"
"11,60910342","-1,479304045","-0,8683854917","-1,835533964","2,512293524"
"11,61905742","-0,2735205787","-0,2160146746","-3,179753879","3,198798302"
"11,62901142","0,8890086944","0,6843680602","-3,87546963","4,034595513"
"11,63896542","1,21484179","0,9066310329","-4,427181324","4,679503701"
"11,64891942","0,7638782063","0,4478989848","-4,432647302","4,520230693"
"11,65887342","0,2740439045","0,1011688176","-4,707637761","4,716692536"
"11,66882742","0,1940996758","0,039498161","-4,996979626","5,000903935"
"11,67878142","0,01279019952","-0,07663575537","-5,233883661","5,234460317"
"11,68873542","0,01310704552","-0,03133717471","-5,840445161","5,840543938"
"11,69868942","0,6827480891","0,4691651254","-6,274295699","6,328747695"
"11,70864342","1,281220259","0,7860869546","-6,339356498","6,515128461"
"11,71859742","1,017773446","0,7313246372","-6,580055376","6,698345114"
"11,72855142","0,3183027954","0,4710095565","-7,461367015","7,482991675"
"11,73850542","-0,0214983847","0,1625647281","-8,037809508","8,03948202"
"11,74845942","-0,08794800717","0,0113556217","-7,230478011","7,231021786"
"11,75841342","0,3079634198","-0,2245976562","-5,217513211","5,23141756"
"11,76836742","0,4151240985","-0,6294985195","-2,504692832","2,615737484"
"11,77832142","0,2179159698","-1,066128239","0,6974833649","1,292516861"
"11,78827542","-0,1207819686","-1,466364595","4,593688391","4,82356574"
"11,79822842","0,07321832277","-1,391999853","7,836022096","7,959036801"
"11,80818242","-0,4541006879","-0,5568373632","7,999352955","8,031557943"
"11,81813642","-1,761594899","-0,06540622339","4,492725688","4,826186763"
"11,82809042","-3,097946654","-0,3364302237","1,715565471","3,557193227"
"11,83804442","-3,843279539","-1,788133218","3,275691485","5,357086216"
"11,84799842","-2,627489915","-3,025333591","7,391182301","8,40749204"
"11,85795242","0,04920910712","-3,430895592","9,937034268","10,51275968"
"11,86790642","2,014729197","-2,282819503","9,29631041","9,78221784"
"11,87786042","3,356785057","-0,8819486931","6,288153015","7,182388722"
"11,88781442","4,394488665","0,5225354035","2,754215158","5,212511392"
"11,89776842","5,799121719","2,424513472","0,5583611476","6,31029678"
"11,90772242","6,704874719","3,464648936","-0,003878458142","7,547128745"
"11,91767642","6,137336367","3,056386399","-0,7637966377","6,898679642"
"11,92763042","5,02868206","2,156749586","-2,095979474","5,859380683"
"11,93758442","3,362270622","1,227518115","-2,981851941","4,658659191"
"11,94753842","1,898397964","0,05562200435","-2,135714228","2,858020977"
"11,95749242","0,8497637178","-0,6024319044","-0,4444474465","1,132499937"
"11,96744642","-0,2877747748","-0,4703348974","0,002081024051","0,5513923897"
"11,97739942","-0,932422151","-0,1800186668","-1,200978334","1,531067192"
"11,98735342","-1,178345516","0,3335673904","-2,206403557","2,523486084"
"11,99730742","-1,570281604","0,479295865","-2,751170513","3,203817728"
"12,00726142","-1,577535806","0,1063874393","-2,58093877","3,026744528"
"12,01721542","-1,729461525","-0,415922682","-2,072109386","2,730872782"
"12,02716942","-2,247179408","-0,704417578","-2,124571189","3,171722269"
"12,03712342","-3,020551446","-1,144343226","-2,333873443","3,984999085"
"12,04707742","-3,007087939","-1,525934128","-2,434718032","4,159195203"
"12,05703142","-2,568815153","-1,504280134","-3,247567547","4,405492592"
"12,06698542","-1,144275691","-0,6589974301","-5,200787836","5,365802697"
"12,07693942","1,352708025","0,518037104","-5,951272702","6,125016589"
"12,08689342","1,16822479","0,4530788139","-2,854164539","3,117095569"
"12,09684742","-0,9182557362","-1,50101578","0,1996069854","1,770899465"
"12,10680142","-2,849542607","-3,09741865","0,291690107","4,218883559"
"12,11675542","-3,780612882","-3,603558315","-1,14161974","5,346210052"
"12,12670942","-2,586700031","-3,172449537","0,2530084366","4,101154275"
"12,13666342","-0,4334584817","-2,782150816","4,180411282","5,04024681"
"12,14661742","-0,7449141511","-2,576270353","7,538635046","8,001442644"
"12,15657142","-2,555529402","-2,146570023","7,622368929","8,320997625"
"12,16652442","-4,456002543","0,1375621802","4,856637679","6,592557285"
"12,17647842","-4,208161291","3,283978744","0,9378577226","5,419660039"
"12,18643242","-1,540236856","4,077293003","-1,418600006","4,583565619"
"12,19638642","1,424437428","4,373541307","-0,7694351077","4,663573301"
"12,20634042","1,058806355","2,779381574","3,454437944","4,558417965"
"12,21629442","-2,290656818","-0,07974827394","7,650441411","7,986408594"
"12,22624842","-5,116419531","-0,676139566","8,493583011","9,938604826"
"12,23620242","-5,49259898","-0,0678475821","6,343514453","8,391270611"
"12,24615642","-5,47035968","-0,03930980757","4,887409236","7,335744634"
"12,25611042","-3,194279239","0,01070405915","2,645026007","4,147251743"
"12,26606442","0,6715401462","1,269661776","1,448270532","2,039729082"
"12,27601842","2,022817065","1,379533589","2,560371189","3,542654714"
"12,28597242","1,245289996","-0,007312089354","3,531207792","3,74435964"
"12,29592642","0,7244672419","-0,6227277361","3,755273096","3,874883049"
"12,30588042","0,2590362581","-0,7528678992","3,022210009","3,125326094"
"12,31583442","-0,3156555782","-0,8577144693","1,193334854","1,503116971"
"12,32578842","0,1466438562","-0,2666938448","-0,8759631908","0,927330329"
"12,33574242","1,044553255","0,800835679","-2,766629382","3,063766868"
"12,34569642","1,663163163","1,596829863","-5,804319894","6,24548691"
"12,35565042","2,12627039","1,713525962","-7,737209414","8,204974498"
"12,36560342","1,880923122","1,561812643","-7,448666278","7,839627532"
"12,37555742","1,060635364","0,5451044134","-5,960648128","6,078767334"
"12,38551142","0,8310412256","-0,2081932562","-3,922733259","4,015197402"
"12,39546542","0,9048367417","0,04874063551","-2,876027863","3,015400711"
"12,40541942","1,504874065","0,2473291091","-3,157876521","3,50685069"
"12,41537342","2,254612534","0,7449620251","-4,507389336","5,094585824"
"12,42532742","2,781263208","1,121785399","-5,929859029","6,645077548"
"12,43528142","3,1263267","1,156994116","-6,800803555","7,573868431"
"12,44523542","2,380690052","0,8179082331","-7,115621738","7,547763359"
"12,45518942","1,911913949","-0,1267772833","-6,591811788","6,864653675"
"12,46514342","1,64085355","-0,5333571379","-5,546375238","5,808540995"
"12,47509742","1,422788074","-0,9577807944","-4,838268067","5,133274573"
"12,48505142","2,15527565","-1,571890758","-4,121961345","4,909849184"
"12,49500542","2,844141242","-2,062592311","-2,416991614","4,264419645"
"12,50495942","2,55288149","-2,432560264","-0,004872484803","3,52626957"
"12,51491342","1,505291118","-3,376388724","2,772011744","4,620600748"
"12,52486742","0,2194128936","-4,162521434","5,968955852","7,280326961"
"12,53482142","-1,322426172","-3,609013183","8,849694816","9,648361803"
"12,54477442","-2,601731468","-0,7320418712","8,677269782","9,088448867"
"12,55472842","-2,381269219","1,509919189","3,003860861","4,119888242"
"12,56468242","-0,7602876505","2,820826054","-3,568508935","4,611870874"
"12,57463642","-0,7475059294","2,905545485","-3,491747857","4,6036141"
"12,58459042","-1,385896675","-0,06973944873","2,130963365","2,542946726"
"12,59454442","-1,316491541","-1,73380206","6,108718339","6,485033485"
"12,60449842","-1,385255236","-1,551626793","8,455233462","8,707321671"
"12,61445242","-0,5417494638","-1,086430502","8,416134886","8,503243506"
"12,62440642","4,588585234","0,7090085194","7,390693474","8,728124515"
"12,63436042","7,831600431","3,789176422","6,145647599","10,65179833"
"12,64431442","5,612785574","3,219298891","1,857645795","6,731871593"
"12,65426842","2,25166393","1,153029704","-2,765916021","3,748300867"
"12,66422242","0,6550154762","0,3811836429","-3,948766233","4,020833372"
"12,67417642","0,2626751083","-0,3695823285","-1,730818518","1,789223869"
"12,68413042","-0,8671983607","-0,7602324674","-0,2326425844","1,176481608"
"12,69408442","-1,849340117","-1,103743231","-0,3622765249","2,183930463"
"12,70403842","-0,1694041432","-0,6411200067","-1,144289578","1,322547264"
"12,71399242","3,497785107","0,7794031486","-1,737736943","3,982674932"
"12,72394642","3,201765137","1,421850181","-1,930780429","4,000108873"
"12,73389942","0,6614477058","-0,1581284456","-2,267845514","2,367623481"
"12,74385342","-1,123780542","-1,333230658","-2,445215539","3,003242535"
"12,75380742","-1,612463125","-1,017349523","-2,425145556","3,084861156"
"12,76376142","-2,040624615","-0,5471026263","-2,483397857","3,260480795"
"12,77371542","-2,378328947","-0,4506520001","-2,812473307","3,710733338"
"12,78366942","-1,149112654","-0,06583657846","-2,765051218","2,995046341"
"12,79362342","-0,2317218124","0,5904200424","-2,711237538","2,784438869"
"12,80357742","-0,1693927594","0,5563254395","-3,062867453","3,117587038"
"12,81353142","-0,4842907394","0,3479202218","-3,926387184","3,971410621"
"12,82348542","-1,117526214","0,3059478845","-4,39325461","4,543473893"
"12,83343942","-1,67849237","0,1623284275","-4,169845948","4,497922007"
"12,84339342","-1,997878544","0,005373956636","-4,049671049","4,515681915"
"12,85334742","-1,380372518","0,04545099199","-3,842032912","4,082733273"
"12,86330142","0,2374048127","0,0690433377","-2,819289991","2,830110259"
"12,87325542","2,02682694","0,06854325458","-0,5667086327","2,105679058"
"12,88320942","1,38189908","-0,3091547169","2,197802303","2,614489753"
"12,89316342","-0,7770860432","-1,908244091","3,719475272","4,25202946"
"12,90311742","-2,769264722","-3,316104808","4,522719566","6,254627924"
"12,91307042","-4,610221394","-3,332883978","4,569065182","7,296479531"
"12,92302442","-5,0843113","-2,217810305","4,665089911","7,247894027"
"12,93297842","-4,392923073","-0,08393093348","4,665662354","6,408839421"
"12,94293242","-3,96742002","0,8040468237","2,963845441","5,01710003"
"12,95288642","-4,588810352","3,071549399","-0,02079971552","5,521958781"
"12,96284042","-4,650999583","4,088087255","-0,7433828384","6,236735731"
"12,97279442","-4,787490261","3,070734882","1,223674302","5,817804956"
"12,98274842","-5,760893208","2,181965996","3,069429199","6,882605739"
"12,99270242","-6,041680596","1,675224653","3,147539229","7,015360665"
"13,00265642","-5,394211391","2,261695998","2,318614549","6,291959849"
"13,01261042","-2,440181086","1,949920997","1,798778951","3,604480731"
"13,02256442","0,7350303832","1,813984051","1,622218181","2,542125022"
"13,03251842","2,21223864","1,621321803","1,228125787","3,005158421"
"13,04247242","2,381955682","0,8076159641","0,6733986837","2,60373236"
"13,05242642","1,965150948","-0,389149451","0,5000977367","2,064788921"
"13,06238042","1,065195681","-1,577588139","0,2955065846","1,926330791"
"13,07233442","0,580757153","-2,166897137","-0,3919084597","2,277348088"
"13,08228842","1,268236517","-1,821189136","-0,580110451","2,293835623"
"13,09224242","1,534620751","-1,444441483","-1,069936384","2,36352193"
"13,10219542","1,435930715","-1,533357168","-2,270156919","3,093007219"
"13,11214942","1,383833631","-1,650027539","-3,897791961","4,453130199"
"13,12210342","1,7853669","-1,752639157","-5,067181297","5,65115964"
"13,13205742","1,846802718","-1,839262003","-5,471037372","6,060182747"
"13,14201142","2,189767644","-1,883128691","-5,878626895","6,549771765"
"13,15196542","2,58769932","-1,523124541","-5,693309335","6,43660371"
"13,16191942","2,673578546","-1,070227429","-4,966709175","5,741220168"
"13,17187342","2,734027646","-0,8667586501","-4,079024071","4,986443131"
"13,18182742","2,258293941","-0,9048228545","-3,456494409","4,226813164"
"13,19178142","1,446170213","-1,278032796","-2,973389266","3,544830015"
"13,20173542","0,9936022262","-1,416020361","-3,438080943","3,848734807"
"13,21168942","1,04503185","-1,015389463","-4,566711093","4,793532886"
"13,22164342","0,784380664","-0,7467461568","-5,574111505","5,678344998"
"13,23159742","0,2547973191","-0,8352336793","-6,164416577","6,22595926"
"13,24155142","-0,2523559238","-0,8873692082","-6,076473284","6,14610732"
"13,25150542","-0,004107157364","-1,084331059","-4,599131564","4,72523035"
"13,26145942","-0,075784081","-1,453799513","-1,628534344","2,184353534"
"13,27141342","0,1669110366","-2,052432189","2,488602464","3,23008969"
"13,28136642","0,4594978141","-2,330776758","7,403491859","7,775303869"
"13,29132042","-0,05702961188","-1,387574387","11,80802166","11,88940665"
"13,30127442","0,498027128","-1,165719185","12,74529758","12,80818264"
"13,31122842","0,7421296339","-1,657214206","10,16078616","10,32175812"
"13,32118242","1,055658507","-0,5644176936","7,326326154","7,423478776"
"13,33113642","2,847893985","0,1881443962","6,825676441","7,398361801"
"13,34109042","3,527262383","1,171303715","7,000885334","7,926280829"
"13,35104442","3,022543592","2,357945991","5,445824763","6,659781259"
"13,36099842","2,945901505","2,801665021","3,472340949","5,346476805"
"13,37095242","2,362557544","2,039133282","3,624184953","4,782725088"
"13,38090642","0,8178180398","0,5139418969","4,90907434","5,003196328"
"13,39086042","-0,4889923393","-1,070388812","4,675275761","4,821104558"
"13,40081442","-0,8346722004","-1,86858652","2,740785273","3,420555098"
"13,41076842","0,8514770251","-1,720576243","1,228324007","2,279073408"
"13,42072242","3,347273099","-0,6783091754","1,548113494","3,749799451"
"13,43067642","3,813180996","0,7847431183","2,24701247","4,495023483"
"13,44063042","2,206322281","1,361450344","2,005727116","3,277856969"
"13,45058442","-0,02571751624","1,075495624","0,5351295751","1,20154729"
"13,46053742","-1,192625806","0,9086139699","-1,729276607","2,288740536"
"13,47049171","-1,343709453","1,392610156","-3,615764378","4,101057202"
"13,48044571","-1,395789433","1,644182078","-4,09462912","4,627909947"
"13,49039971","-1,497878018","1,167430738","-3,97729012","4,407422125"
"13,50035371","-1,91395185","0,7559377605","-3,734028407","4,263522221"
"13,51030771","-2,025772979","1,234418853","-3,838885356","4,512713911"
"13,52026171","-1,764666295","1,919652593","-4,377060746","5,09487723"
"13,53021571","-1,759376027","2,016954501","-5,170474116","5,822139816"
"13,54016971","-2,003495818","1,603018849","-6,163653515","6,676397949"
"13,55012371","-2,448618034","1,523557235","-7,17386293","7,731834599"
"13,56007771","-2,894379642","1,753320943","-8,103218216","8,781441414"
"13,57003171","-2,849586754","1,280626182","-8,137827301","8,716902045"
"13,57998571","-2,591493871","0,7306979618","-6,966147026","7,468397712"
"13,58993971","-1,558162226","0,4678444221","-5,517364277","5,752221875"
"13,59989371","-0,1400384029","-0,1737180727","-3,876696376","3,883112607"
"13,60984771","0,9992662047","-0,4587036891","-2,001464496","2,28359413"
"13,61980171","1,057211089","-0,7135140914","-1,428825032","1,915290739"
"13,62975571","-1,29319945","-1,852133625","-0,8479626292","2,412841561"
"13,63970871","-4,370179158","-2,698498794","0,6352672362","5,175318935"
"13,64966271","-5,725718113","-2,625058935","1,747619907","6,536739069"
"13,65961671","-4,910001124","-0,01103150323","2,641262155","5,575347388"
"13,66957071","-1,304905283","3,484986137","3,339714988","5,000160235"
"13,67952471","1,614875394","5,031499833","4,118454185","6,699662527"
"13,68947871","2,482970718","4,618570925","4,745102041","7,071939929"
"13,69943271","1,297848571","1,721421458","7,708397259","8,004192092"
"13,70938671","-0,1723913395","-1,235186007","11,48512905","11,5526444"
"13,71934071","-1,134533645","-1,269113745","12,02468906","12,14458576"
"13,72929471","-2,039207834","0,8797929709","10,07238796","10,31433"
"13,73924871","-2,753000984","1,952067656","7,984449572","8,668391865"
"13,74920271","-2,486333744","1,843664225","6,847790025","7,514864037"
"13,75915671","-1,819536274","1,752907398","6,091582489","6,594753507"
"13,76911071","-1,325640095","1,650474705","4,466546534","4,94281563"
"13,77906471","-1,419095704","0,938566259","2,707708744","3,19787834"
"13,78901871","-1,807011246","-0,08364427373","1,469342728","2,330505109"
"13,79897271","-1,896058347","-0,5992431253","0,7157968444","2,113408314"
"13,80892671","-1,480886448","-0,5094430491","-0,1149673694","1,570278442"
"13,81887971","-0,4529357763","0,04932813451","-1,443837174","1,514017789"
"13,82883371","0,592139343","0,5457187365","-2,982972268","3,08975104"
"13,83878771","1,583886613","0,808324939","-4,237486539","4,595473662"
"13,84874171","2,431364654","0,7088627044","-4,713596658","5,350889073"
"13,85869571","1,950610969","0,2645450661","-4,97468887","5,349990336"
"13,86864971","1,143643461","-0,5478759205","-5,389379836","5,536560612"
"13,87860371","0,5892841476","-1,154982235","-5,820767527","5,963436456"
"13,88855771","0,3575663369","-1,326669351","-6,069592865","6,223171442"
"13,89851171","0,5528013592","-1,233913799","-6,4392515","6,579672673"
"13,90846571","1,355990652","-0,9530188219","-6,664001513","6,867013301"
"13,91841971","2,045466548","-0,5245229452","-6,180189441","6,530987616"
"13,92837371","2,374447272","-0,2814806492","-5,522243779","6,017674597"
"13,93832771","1,934831965","-0,7350039976","-5,113546209","5,516535184"
"13,94828171","1,491178863","-1,338057826","-4,722929399","5,13030947"
"13,95823571","1,031819262","-1,937747094","-4,212765681","4,750464132"
"13,96818971","0,5589948396","-2,530394268","-3,652538102","4,478437782"
"13,97814371","0,3707148976","-2,698391498","-3,406797169","4,361767207"
"13,98809771","0,9350557369","-2,658597687","-2,859463286","4,014847591"
"13,99805071","2,056230541","-2,6995051","-1,248903283","3,615960624"
"14,00800471","2,788154152","-3,277559085","1,739094082","4,64119008"
"14,01795871","1,881574355","-4,485507885","5,454817781","7,308566211"
"14,02791271","-0,02249694295","-4,911431937","7,384966711","8,869070025"
"14,03786671","-1,599532447","-4,200278952","7,31320968","8,583931683"
"14,04782071","-1,859251294","-2,919002852","5,427334698","6,436874625"
"14,05777471","-1,621828465","-0,6064199978","3,288076472","3,716116208"
"14,06772871","-1,325109021","1,337007959","3,127323065","3,650158045"
"14,07768271","-1,287171848","0,6686212161","5,678029976","5,860366038"
"14,08763671","-1,045787895","-0,4979503468","8,618387151","8,695873962"
"14,09759071","-0,7184444636","0,3432458845","8,274564439","8,312785143"
"14,10754471","-0,4643157005","1,75913863","5,12992309","5,44300181"
"14,11749871","-0,0003707317449","2,365817952","2,328057802","3,319178791"
"14,12745271","0,3329739346","2,737678063","1,202698","3,008693287"
"14,13740671","0,9418719824","2,744899959","1,047454425","3,085248675"
"14,14736071","1,913822042","2,672093938","0,7616758525","3,373862909"
"14,15731471","2,310293084","2,722077107","0,5364890528","3,61039865"
"14,16726771","1,936268918","2,449641296","1,172569052","3,335385733"
"14,17722171","0,7382647705","1,830370434","1,733898246","2,627107521"
"14,18717571","0,1725035329","1,382187494","1,478971338","2,031638737"
"14,19712971","-0,6832011753","1,808349089","0,02958925009","1,933330235"
"14,20708371","-1,098707901","2,103437305","-2,375013283","3,357423959"
"14,21703771","-0,6395679364","1,827143502","-4,922894819","5,289838742"
"14,22699171","-0,3939034566","1,550212498","-6,748535879","6,935492429"
"14,23694571","-0,8470757528","0,7096199919","-6,796698809","6,885943114"
"14,24689971","-1,844666584","-0,4559660228","-5,375413762","5,701383422"
"14,25685371","-2,666515987","-1,410318595","-3,874813573","4,910548469"
"14,26680771","-3,203458491","-1,830272201","-3,073465531","4,801898896"
"14,27676171","-3,374921658","-1,717626322","-2,965954531","4,8101167"
"14,28671571","-2,785550679","-1,460986472","-3,703981905","4,859347282"
"14,29666971","-1,669210353","-0,9296558332","-5,369817976","5,699602466"
"14,30662371","-0,2833604194","-0,323294673","-6,756520252","6,770183047"
"14,31657771","0,2840921253","0,2314164233","-7,251796959","7,261048205"
"14,32653171","-0,4834702288","0,4652435075","-7,228784657","7,259856927"
"14,33648571","-1,662807214","0,1932286233","-7,046621085","7,242729724"
"14,34643871","-3,056175607","-0,3417841537","-6,80786933","7,470214894"
"14,35639271","-4,045600509","-1,019245775","-6,079158325","7,373053057"
"14,36634671","-4,220529906","-1,826944112","-4,575617571","6,487439683"
"14,37630071","-4,120757403","-1,776808769","-2,848887427","5,315435123"
"14,38625471","-3,743570771","-0,8457669266","-1,21891116","4,026833524"
"14,39620871","-4,147732948","-0,6120280623","1,521017497","4,46001807"
"14,40616271","-5,715145177","-1,344806537","4,882866535","7,636345632"
"14,41611671","-6,214388051","-1,268880295","7,674204496","9,956007769"
"14,42607071","-4,382707987","0,2785223235","9,052742304","10,061702"
"14,43602471","-0,7047260917","1,953767296","9,163875069","9,396299899"
"14,44597871","2,851402899","1,942663287","9,882255213","10,46725404"
"14,45593271","3,709618621","0,1920880508","13,22962011","13,74121598"
"14,46588671","1,150948899","-1,208892833","15,68813105","15,77667776"
"14,47584129","-1,077903069","-1,031884312","13,6330125","13,71443365"
"14,48579529","-2,135668912","0,33754061","9,022438524","9,277899131"
"14,49574929","-2,196521324","2,304917446","4,908741633","5,850905467"
"14,50570329","-1,18232462","3,688646997","2,464675657","4,591147381"
"14,51565629","0,03517694986","3,954167306","0,7462351102","4,024120195"
"14,52561029","0,6182494998","3,729773389","-1,064723006","3,927731795"
"14,53556429","1,010085893","3,140849722","-2,147109282","3,936405563"
"14,54551829","1,402876843","2,347065931","-2,118796479","3,459202284"
"14,55547229","1,106140077","1,217936721","-1,762192338","2,410858263"
"14,56542629","0,9800809785","0,293766234","-1,289447876","1,646065962"
"14,57538029","0,9910035773","-0,01890733726","-1,004096736","1,410906032"
"14,58533429","1,020651519","-0,3728495333","-0,697810809","1,291389261"
"14,59528829","1,460879761","-0,7435380819","-0,2386254555","1,656490466"
"14,60524229","1,257704512","-0,9475301137","-0,3443893075","1,611905069"
"14,61519629","0,8183087674","-1,388506287","-1,279826868","2,058041729"
"14,62515029","0,3291064399","-1,500344081","-2,348689703","2,806365395"
"14,63510429","-0,2445799127","-0,9582695485","-3,782065038","3,909234684"
"14,64505829","-0,6311728697","-0,5185533766","-5,666887522","5,725459892"
"14,65501229","-1,009546487","-0,08521183915","-7,020660617","7,093385699"
"14,66496629","-0,9150427642","0,3843451593","-7,679816653","7,74368183"
"14,67492029","-0,2635909102","0,8357992512","-7,163693452","7,217100833"
"14,68487429","0,04576368098","0,7572376697","-6,529361186","6,57328386"
"14,69482729","-0,4502367747","0,4641160547","-6,748473898","6,779381743"
"14,70478129","-1,324500472","0,3604053793","-7,955398266","8,072952069"
"14,71473529","-1,039152621","0,19114537","-8,965600664","9,027644764"
"14,72468929","1,328849047","0,5393393877","-8,949652383","9,063829464"
"14,73464329","2,716645921","1,350544409","-7,794950668","8,364531737"
"14,74459729","2,596427459","0,2659672552","-4,505256271","5,206679191"
"14,75455129","2,318076459","-2,390586757","0,03013713419","3,330058822"
"14,76450529","1,474608292","-5,27767229","5,92638169","8,071573226"
"14,77445929","0,6185974091","-6,955897442","10,20824801","12,36832646"
"14,78441329","1,259670346","-6,928738294","10,85294213","12,93756301"
"14,79436729","2,261875946","-5,081493527","8,099235678","9,825236782"
"14,80432129","3,281248679","-2,628974231","3,422708613","5,42153416"
"14,81427529","4,020545483","0,5473702826","-1,105378112","4,205503653"
"14,82422929","4,039899766","2,956515956","-2,522426267","5,605748032"
"14,83418329","3,270839758","2,135104802","0,6462149781","3,959123518"
"14,84413729","1,380771152","-0,1875754622","3,739884979","3,991046627"
"14,85409029","-0,2250883473","-1,551418486","4,426325292","4,6957342"
"14,86404429","-0,5420944495","-1,181360925","4,088862596","4,290486844"
"14,87399829","0,03129243437","-0,2105246142","4,380885994","4,386053115"
"14,88395229","0,6785234758","1,03762277","4,907616044","5,061793196"
"14,89390629","1,364709435","1,594849704","4,789133329","5,22893636"
"14,90386029","1,780586071","1,255472922","3,457828159","4,086963982"
"14,91381429","1,839714431","0,7323496541","2,084908356","2,875365726"
"14,92376829","1,202578059","0,5035004508","1,61631951","2,076582638"
"14,93372229","0,4626325064","0,2455716553","1,277905473","1,381078083"
"14,94367629","0,03053229634","0,04559724547","0,9091408771","0,9107955118"
"14,95363029","-0,2265118519","0,09537356906","0,2747267497","0,3686170421"
"14,96358429","-0,3686616113","0,2571270691","-0,8715432805","0,9806188878"
"14,97353829","-0,2166291804","0,3506833235","-2,09343652","2,133631519"
"14,98349229","0,09990943696","0,3491487218","-3,367454179","3,386980126"
"14,99344629","0,3620083935","0,169704617","-4,399349747","4,417479817"
"15,00340029","0,606437978","-0,1691334171","-5,261791837","5,299323208"
"15,01335329","0,8166633609","-0,3545477483","-5,742040615","5,810651734"
"15,02330729","0,6747909057","-0,4600296915","-5,574741835","5,63424499"
"15,03326129","0,2195435423","-0,685842728","-5,400753255","5,448551674"
"15,04321529","-0,1955312569","-0,7422572494","-5,977185808","6,026269864"
"15,05316929","-0,3745699669","-0,4433718511","-7,395838439","7,418578534"
"15,06312329","-0,133474209","0,05132393539","-8,7631876","8,764354307"
"15,07307729","-0,445840436","0,383109935","-9,346760187","9,365226795"
"15,08303129","-1,419358244","0,3840136222","-9,26201766","9,378007007"
"15,09298529","-2,475167316","0,2966433565","-9,085796614","9,421578988"
"15,10293929","-3,390155409","0,3831387325","-8,485712074","9,145887512"
"15,11289329","-4,041006352","0,46014035","-7,779027531","8,77808241"
"15,12284729","-4,250140206","0,3731421134","-6,957089104","8,161128329"
"15,13280129","-3,27088712","0,4152619466","-5,219224107","6,173446794"
"15,14275529","-2,777307275","0,354097732","-1,575449227","3,212609713"
"15,15270929","-3,498439119","-0,4070891471","3,170010663","4,738540434"
"15,16266329","-5,701033507","-0,7171339564","6,56020174","8,720797614"
"15,17261729","-8,397063607","0,2752445206","6,947725373","10,90217064"
"15,18257129","-9,207780642","0,935122249","6,361826178","11,23078405"
"15,19252429","-7,923014631","2,039540395","6,628448687","10,52949276"
"15,20247829","-5,789673203","2,784092091","8,953097563","11,01950274"
"15,21243229","-4,638122845","0,7794383781","13,97654461","14,74664392"
"15,22238629","-5,030755482","-2,259374799","18,243804","19,05910962"
"15,23234029","-4,461723458","-3,352282701","17,90816213","18,75758637"
"15,24229429","-3,084293698","-2,417221263","13,68165666","14,23177976"
"15,25224829","-1,932337104","-0,1376845331","9,319502222","9,518718684"
"15,26220229","-0,5569176894","1,400611632","6,616719173","6,786224493"
"15,27215629","2,043620874","1,939716144","5,168206565","5,886360854"
"15,28211029","3,093262742","2,384340177","3,82285463","5,465123053"
"15,29206429","2,317972379","2,001557613","2,519047161","3,965454252"
"15,30201829","1,893405758","1,142053311","1,471064733","2,655805448"
"15,31197229","2,240261567","0,7041414432","0,540216068","2,409651523"
"15,32192629","3,037112807","1,197461745","-0,3986146313","3,288899886"
"15,33188029","3,499698024","1,862120084","-1,671720709","4,30232816"
"15,34183429","3,668454807","1,84692434","-2,640824783","4,882893172"
"15,35178829","3,473479401","1,419547547","-3,001617869","4,805193464"
"15,36174129","2,478186526","0,803513046","-2,960002651","3,943178586"
"15,37169529","1,333261209","-0,0755980299","-2,844269881","3,142160351"
"15,38164929","0,732501974","-0,8968153851","-2,963867075","3,182034729"
"15,39160329","0,345308636","-1,17665611","-3,338757214","3,556832494"
"15,40155729","0,515804235","-1,061395429","-3,830543134","4,008200964"
"15,41151129","1,077656024","-0,8057789151","-4,244302053","4,452496164"
"15,42146529","1,669737772","-0,4299026803","-4,671252292","4,979301007"
"15,43141929","2,328950672","-0,1460881149","-5,038227054","5,552394513"
"15,44137329","2,445864433","-0,05505171809","-5,314142543","5,850247387"
"15,45132729","2,193995473","-0,01818323269","-5,857706142","6,255131335"
"15,46128129","1,729235823","-0,1936025893","-6,332162084","6,566887783"
"15,47123471","1,116331117","-0,2254977985","-6,406366759","6,506810238"
"15,48118871","0,5529367588","-0,2399154975","-6,151280807","6,180740576"
"15,49114271","0,2295376764","-0,5030031451","-5,275173774","5,304069952"
"15,50109671","0,5819953009","-0,8452292021","-3,725021941","3,863795983"
"15,51105071","1,608035175","-1,035687049","-0,9392400044","2,130867564"
"15,52100371","3,357159571","-1,049395115","2,974068713","4,606173596"
"15,53095771","4,766087405","-1,715268579","7,54884487","9,090808232"
"15,54091171","4,587583314","-2,959981893","11,69168311","12,90359901"
"15,55086571","3,297472363","-3,998037795","11,65155484","12,752112"
"15,56081971","2,43982002","-4,121177818","7,577193925","8,963854981"
"15,57077371","0,9726305294","-2,148470075","3,094165844","3,890475046"
"15,58072771","0,9299451973","-0,2004602404","0,757395106","1,215989196"
"15,59068171","2,345129041","0,02124351919","2,580894331","3,487276452"
"15,60063571","2,874943789","0,1027703699","5,08065796","5,838574213"
"15,61058971","2,884920016","0,2942019247","4,37443827","5,248335779"
"15,62054371","2,852992172","0,3857396472","1,699676832","3,343241054"
"15,63049771","2,821118707","0,9707228753","0,1648131287","2,988005527"
"15,64045171","2,776218815","1,25431108","0,4111925769","3,074047256"
"15,65040571","2,728913379","0,9656018838","1,363871822","3,19992212"
"15,66035971","1,994904358","0,4588090852","1,73993959","2,686547776"
"15,67031371","0,843323229","0,0453510046","1,479853098","1,703882618"
"15,68026671","-0,02445150726","-0,4619246279","1,649838674","1,713458458"
"15,69022071","-0,8207715415","-0,5083013803","1,899828778","2,131052698"
"15,70017471","-1,440076537","-0,1017763433","1,22854854","1,895655658"
"15,71012871","-1,574893742","0,6055370682","-0,4263596696","1,740329856"
"15,72008271","-1,777091628","1,266733051","-2,081975393","3,016171218"
"15,73003671","-1,699782813","1,436534147","-3,581552319","4,216682224"
"15,73999071","-1,481180563","1,521239398","-4,647467573","5,109502912"
"15,74994471","-1,331705996","1,192100726","-4,766548458","5,090631513"
"15,75989871","-1,269673031","0,9530125362","-4,2106677","4,500002775"
"15,76985271","-1,522448164","0,8708628839","-3,853623263","4,233988997"
"15,77980671","-1,755804547","0,458020442","-3,654332027","4,080045943"
"15,78976071","-1,766291967","-0,1248969649","-3,153309846","3,616455385"
"15,79971471","-1,712200252","-0,3582274012","-3,075902651","3,538521399"
"15,80966871","-1,642310969","-0,2120642591","-4,31227652","4,619294898"
"15,81962271","-1,661065767","0,03436986051","-5,603568608","5,844681507"
"15,82957671","-1,668305643","0,7802562574","-6,427154195","6,685832379"
"15,83953071","-1,33180613","1,8959702","-6,86705777","7,247405949"
"15,84948371","-1,374002123","2,406000602","-6,035138147","6,640753962"
"15,85943771","-2,331870479","1,814170431","-4,110793163","5,062356636"
"15,86939171","-3,956270257","0,4076446326","-2,783524911","4,854509185"
"15,87934571","-5,289645048","-1,15786272","-1,681318914","5,669905123"
"15,88929971","-5,59502875","-1,784636437","-0,3681003517","5,884281757"
"15,89925371","-4,869781928","-1,742181412","1,705722853","5,446050179"
"15,90920771","-3,504108871","-1,484989","4,759502563","6,093999997"
"15,91916171","-3,258379049","-1,186514807","7,0604287","7,866034887"
"15,92911571","-3,858689291","-0,8641477221","6,890583458","7,944581469"
"15,93906971","-3,463751974","-0,5540064338","4,597603102","5,782945197"
"15,94902371","-2,544081138","-0,005250653476","1,659452666","3,037459392"
"15,95897771","-1,248874047","0,1558918856","0,3299472696","1,301097178"
