Time (s),Linear Acceleration x (m/s^2),Linear Acceleration y (m/s^2),Linear Acceleration z (m/s^2),Absolute acceleration (m/s^2)
"0,02626604168","-0,2662210243","0,3846134369","-0,1144358575","0,4815565336"
"0,03622004157","-0,1553636993","0,4385924102","-0,2105903953","0,5107342713"
"0,0461750417","-0,1476483348","0,3632074747","-0,2497778499","0,4648749023"
"0,05612904159","-0,1275303315","0,3693338949","-0,103317377","0,4041608489"
"0,06608304172","-0,0905391277","0,3769961229","0,1489700979","0,415349853"
"0,07603804162","-0,009415698275","0,3803613416","0,3049942768","0,4876319457"
"0,08599204174","-0,1200945918","0,3121366141","0,6710241294","0,7497501978"
"0,09594604163","-0,9358343668","0,2111105783","1,31123811","1,624715058"
"0,1059010418","-0,3408615727","0,2310598893","0,3155052316","0,5187666483"
"0,1158550417","0,07413326584","0,2106180234","-0,528134551","0,5733949746"
"0,1258090416","0,1190920502","0,06842214413","-0,6773221654","0,6911076775"
"0,1357640417","0,0673339773","0,0478237921","-0,4407853353","0,4484558968"
"0,1457180416","0,05606838444","0,1144569806","-0,1712760562","0,2134936804"
"0,1556730417","0,1524964075","0,1741191186","-0,03250818014","0,2337293382"
"0,1656270416","0,2455030602","0,1245967834","-0,07500925183","0,2853462789"
"0,1755810417","0,3003469829","0,02643263072","-0,23784953","0,3840304584"
"0,1855360416","0,2747479093","-0,05381843068","-0,4305065149","0,5135354871"
"0,1954900417","0,05596429487","-0,170132487","-0,4682011753","0,5012877477"
"0,2054440416","-0,1309475631","-0,1932223376","-0,3258033478","0,4007866733"
"0,2153990415","-0,04682471308","0,2061891961","-0,4997574288","0,5426453961"
"0,2253530417","-0,1091771185","0,3034956354","-0,911642316","0,9670165232"
"0,2353070416","-0,160582924","0,08585503288","-0,8427580225","0,862205919"
"0,2452620417","0,06854241405","0,01402600855","-0,8122992915","0,8153066481"
"0,2552160416","0,07594747413","-0,08928544812","-0,5239573002","0,5369088959"
"0,2651700417","0,04251423706","-0,1402874943","-0,1156912547","0,1867418213"
"0,2751250416","0,1506213151","-0,03420628466","0,09365602255","0,1806330563"
"0,2850790417","0,2343464996","0,04470422946","0,06340837598","0,2468549618"
"0,2950330416","0,1664544239","-0,0346696765","-0,04042998791","0,1747674043"
"0,3049880418","0,07947879952","-0,1418810067","-0,08937176764","0,1855651166"
"0,3149420416","0,04765319958","-0,1335836615","0,01719666123","0,1428675863"
"0,3248960415","0,05244519381","-0,06755098209","0,1640488976","0,1850018225"
"0,3348510417","0,1059308631","-0,04133776814","0,2990400571","0,3199298588"
"0,3448050416","0,1341101394","-0,02122151904","0,3839082992","0,4072118178"
"0,3547590417","0,1371902972","-0,04787232399","0,3835989815","0,4101964355"
"0,3647140416","0,101587734","-0,06850795202","0,3389864802","0,3604514405"
"0,3746680417","0,01783987323","-0,04893023148","0,288991617","0,2936470386"
"0,3846220416","-0,04434024028","-0,01123761758","0,2539556855","0,258042305"
"0,3945770417","-0,03656482304","0,01705398917","0,2504859477","0,253714475"
"0,4045310416","0,01119255748","0,04614140198","0,1977329528","0,2033534434"
"0,4144860418","0,05669867774","0,04844688602","0,1471130222","0,1649366003"
"0,4244400417","0,05744035137","0,0527127222","0,09753506541","0,1248643826"
"0,4343940415","0,004988086084","0,037896901","0,1216729563","0,1275357378"
"0,4443490417","-0,06759748572","0,0141553051","0,1967558831","0,2085249872"
"0,4543030416","-0,1692598266","0,04684277549","0,2464268106","0,3026042093"
"0,4642570417","-0,1871838814","-0,05004116591","0,1683787608","0,2566969631"
"0,4742120416","-0,07813085186","-0,1465340017","-0,2482365239","0,298660368"
"0,4841660417","-0,06082677545","0,006177839153","-0,2555554837","0,2627673259"
"0,4941200416","-0,1625197411","0,07739100549","-0,05086083591","0,1870530903"
"0,5040750417","-0,07966622106","0,1222591032","-0,1441595936","0,2051243123"
"0,5140290416","-0,05248607864","0,05820409823","-0,254819904","0,2666002419"
"0,5239830418","0,03101395159","-0,09152416427","-0,2665184283","0,2834971084"
"0,5339381667","0,06016703137","-0,1294829727","-0,2389575773","0,278364214"
"0,5438921666","-0,1756099393","0,1397970956","-0,1812607616","0,2885091722"
"0,5538461667","-0,3965520991","0,3312241918","-0,1155591077","0,5294496576"
"0,5638011666","-0,451164472","0,2931113458","-0,03048679769","0,5388813289"
"0,5737551667","-0,3151543256","0,1092645069","0,04441311121","0,3365018661"
"0,5837091666","-0,1278001897","0,06724754814","0,08066233993","0,1654132229"
"0,5936641668","-0,05693355309","0,119466071","0,08067403436","0,1549899074"
"0,6036181666","-0,1304960941","0,1336678249","0,1518434197","0,2407337577"
"0,6135721668","-0,1977376854","0,09258678608","0,300793637","0,3716844324"
"0,6235271667","-0,1333706493","0,02346553423","0,3013239795","0,330355115"
"0,6334811666","-0,06473427324","-0,03523375008","0,2382752073","0,249413347"
"0,6434351667","-0,07089775931","-0,1158373255","0,1935083395","0,2364112005"
"0,6533901666","-0,1665804679","-0,1422089624","0,134851411","0,2572107003"
"0,6633441667","-0,1644576911","-0,09508069664","0,1429164755","0,2377220857"
"0,6732991666","-0,159343899","-0,04533901781","0,2262568402","0,2804251459"
"0,6832531667","-0,1204563518","-0,05467460923","0,2301569331","0,2654642338"
"0,6932071666","-0,05091397248","-0,08126127753","0,09713277698","0,1364932386"
"0,7031621668","-0,04387077282","-0,1390061135","-0,1419575322","0,2034681431"
"0,7131161666","-0,152732032","-0,1546955818","-0,3610801846","0,4214696861"
"0,7230701665","-0,2378358621","-0,05107795034","-0,3833200693","0,4539924337"
"0,7330251667","-0,2327523294","0,05709784158","-0,287536245","0,3743139091"
"0,7429791666","-0,2066393952","0,03077791594","-0,1051007777","0,2338659728"
"0,7529331667","-0,07562170199","-0,0132152921","-0,01065187275","0,07750321381"
"0,7628881666","-0,04381522884","-0,006334252171","-0,1209104794","0,1287604018"
"0,7728421667","-0,09350499993","0,06012677237","-0,2627703631","0,2853185544"
"0,7827961666","-0,1528435128","0,04755675707","-0,3870581943","0,4188517999"
"0,7927511667","-0,1582224761","0,004596496224","-0,2916912764","0,3318723858"
"0,8027051666","-0,1399863718","0,007647427171","-0,06786220014","0,1557560453"
"0,8126591668","-0,06017776192","-0,01417884015","0,123639375","0,1382356596"
"0,8226141667","0,04638734592","0,0114902173","0,08842802703","0,1005153069"
"0,8325681665","-0,0211840055","0,06127735823","-0,03868693292","0,07550069867"
"0,8425221667","-0,0610117713","0,05560548596","-0,1404448575","0,1629084537"
"0,8524771666","-0,03754650203","0,09105028398","-0,3402266747","0,3541949805"
"0,8624311667","-0,1153121176","0,1879546176","-0,4788606495","0,5271919426"
"0,8723851666","-0,1525710508","0,1403738504","-0,4430569786","0,4891648288"
"0,8823401667","-0,07645984554","0,04178592067","-0,2155546814","0,2324994448"
"0,8922941666","-0,04676661094","0,05347424895","-0,06988241315","0,09965020254"
"0,9022491667","-0,03200176558","0,07938823164","-0,05547662795","0,1020012773"
"0,9122031666","-0,1014064064","0,039945071","-0,04523464501","0,1180044112"
"0,9221571668","-0,09400045096","0,0454192343","0,05873352706","0,1197857205"
"0,9321121667","-0,02944300574","0,06645810094","0,06537771821","0,09776408239"
"0,9420661665","-0,01019968199","0,05386542767","-0,02187267959","0,05902484158"
"0,9520201667","-0,02001965355","0,02782971326","-0,05643732548","0,06603371242"
"0,9619751666","-0,04674383878","0,04255351391","-0,06197229981","0,08852318314"
"0,9719291667","-0,08114047771","0,07935113836","-0,1234762377","0,1677103502"
"0,9818831666","-0,1285611865","0,1134424887","-0,09962193668","0,1982970176"
"0,9918381667","-0,07576021705","0,0676291886","0,03741691768","0,1082282004"
"1,001792167","0,05829822013","0,04761409633","-0,01043435633","0,07599118654"
"1,011746167","0,01916494137","0,06499388505","-0,08569854677","0,1092508169"
"1,021701167","-0,04406479075","0,08827340472","-0,03670531154","0,1052671823"
"1,031655167","-0,03385821316","0,111184294","-0,0513215965","0,1270520842"
"1,041609167","-0,01123022862","0,1184449644","-0,13571446","0,1804819722"
"1,051564167","-0,007104095214","0,09008092526","-0,1510031748","0,1759744301"
"1,061518167","-0,0279923892","0,05336088605","-0,1512113357","0,1627753853"
"1,071472167","-0,05377875184","0,06052489467","-0,1048318058","0,1324580105"
"1,081427167","-0,1341075903","0,08968799237","0,00988822639","0,1616371207"
"1,091381167","-0,1514285689","0,09271798298","0,113311438","0,2106340851"
"1,101335167","-0,09795095776","0,1039139026","0,01107638061","0,1432311959"
"1,111290167","-0,08788800012","0,07404658087","-0,1133482754","0,1614157001"
"1,121244167","-0,08381970847","-0,004681390487","-0,1544483542","0,1757895135"
"1,131199167","-0,08269515186","0,03377965719","-0,1828722543","0,2035234993"
"1,141153167","-0,1242821302","0,06631882757","-0,2111985058","0,2538681618"
"1,151107167","-0,1496800869","-0,02561168164","-0,2178573149","0,2655595909"
"1,161062167","-0,1809986602","-0,03538365807","-0,09669540524","0,2082366914"
"1,171016167","-0,1204947241","0,01827433962","0,035102005","0,1268269718"
"1,180970167","-0,04382214043","0,06187406659","0,1885200799","0,203195966"
"1,190925167","0,05994417479","0,09465710241","0,3149438989","0,3342797191"
"1,200879167","0,07447699076","0,09587650269","0,3311289918","0,3526833355"
"1,210833167","0,01109145546","0,06273572691","0,3158098716","0,322171797"
"1,220788167","0,04841831689","0,06900763314","0,3131277537","0,3242766982"
"1,230742167","0,05943302765","0,1081915428","0,2366906118","0,2669459504"
"1,240696167","0,02587960746","0,1185136326","0,1668584847","0,2062934539"
"1,250651167","-0,03144340674","0,1218091234","0,04968963861","0,1352597891"
"1,260605167","-0,01987972009","0,09238439932","-0,06647114754","0,1155356826"
"1,270559167","-0,02880057262","0,09189356212","-0,02967929721","0,1007708312"
"1,280514167","-0,0505541129","0,1312136023","0,001540741324","0,1406239725"
"1,290468167","-0,01802712117","0,1690462936","-0,03821272373","0,1742464884"
"1,300422167","0,01094192206","0,146291598","-0,05115144253","0,1553622457"
"1,310377167","0,01681463249","0,1388158232","-0,03724325538","0,144705303"
"1,320331167","-0,01179042614","0,1731706637","0,01814449489","0,1745173791"
"1,330285167","-0,009973614011","0,1709844628","-0,01704580307","0,1721212332"
"1,340240167","-0,02442673425","0,120145152","-0,05331842065","0,1336950892"
"1,350194167","-0,09154004311","0,1007319575","-0,06087009966","0,1491029033"
"1,360149167","-0,1186653313","0,09428532913","-0,05511936307","0,1612740783"
"1,370103167","-0,09337228641","0,07366161481","-0,05403470457","0,1306298843"
"1,380057167","-0,02908974255","0,112484532","-0,05148882687","0,1270829743"
"1,390012167","-0,00814525363","0,137522748","-0,06855275631","0,153877652"
"1,399966167","-0,07102877805","0,1253878752","-0,1002645457","0,1755567876"
"1,409920167","-0,08596859677","0,1187094413","-0,1195100713","0,1891168639"
"1,419875167","-0,07138141997","0,1140620743","-0,1148100793","0,1768808023"
"1,429829167","-0,0486261854","0,07665060181","-0,177366516","0,1992453303"
"1,439783167","-0,002972852346","0,03995000459","-0,1824693811","0,1868151914"
"1,449738167","0,02339500219","0,03845852606","-0,06124724507","0,07601058731"
"1,459692167","0,117434666","0,06103762239","0,005922644734","0,1324823379"
"1,469646167","0,1794300715","0,06137208313","-0,05132744372","0,1964591296"
"1,479601167","0,1561610403","0,07389396854","-0,0883865118","0,1940586626"
"1,489555167","0,1005600311","0,05817946684","-0,1481947571","0,188305221"
"1,499509167","-0,02939160049","0,02129837338","-0,2023271102","0,2055571609"
"1,509464167","-0,1466434542","0,0635036125","-0,1860952395","0,2452925797"
"1,519418167","-0,120617068","0,07850460771","-0,1048756599","0,1780740143"
"1,529372167","0,0001179995527","0,04033296067","-0,01600441396","0,04339242914"
"1,539327083","0,06503394761","0,08265642319","0,009715148807","0,1056214124"
"1,549281083","0,01001765085","0,1066464892","0,01909759104","0,1088050779"
"1,559235083","-0,04478514031","0,0292745968","-0,0306633836","0,0616680947"
"1,569190083","-0,08037878651","0,02982050747","-0,02919748664","0,09056768305"
"1,579144083","-0,08970746177","0,09210808184","0,01915898681","0,1299938238"
"1,589099083","-0,0763100015","0,08309445273","-0,008240481019","0,1131185658"
"1,599053083","-0,08272894694","0,07754763778","-0,1201129192","0,1651811979"
"1,609007083","-0,1198726991","0,1028305597","-0,2162838292","0,2678101619"
"1,618962083","-0,1369610042","0,102054086","-0,2108225298","0,2713291216"
"1,628916083","-0,146933467","0,09918657493","-0,1591132629","0,2382109376"
"1,638870083","-0,1621094127","0,1089807342","-0,1589185506","0,251816139"
"1,648825083","-0,1125402085","0,09157901846","-0,1219062603","0,1895076554"
"1,658779083","-0,07671128495","0,08618010152","-0,0479050684","0,124926085"
"1,668733083","-0,05297348974","0,1108074775","0,01833862245","0,1241804846"
"1,678688083","-0,04068324544","0,119190192","0,009899920821","0,1263306644"
"1,688642083","-0,06365422399","0,09436178148","-0,02457935572","0,1164480604"
"1,698596083","-0,1048645776","0,08452318333","-0,08869466007","0,1612683816"
"1,708551083","-0,09008112626","0,08848379485","-0,1035530198","0,1633010078"
"1,718505083","-0,04795567422","0,1130528814","-0,06556775272","0,139211461"
"1,728459083","-0,01282333679","0,09866054479","-0,07371000051","0,1238204557"
"1,738414083","0,006204325212","0,09669441853","-0,1350385219","0,1662038105"
"1,748368083","-0,02456659234","0,1060460167","-0,2122743934","0,238557526"
"1,758322083","-0,03656714366","0,09508968674","-0,2789121866","0,2969363776"
"1,768277083","-0,06590471679","0,1068121481","-0,3141714817","0,3383134443"
"1,778231083","-0,1057621892","0,1233092631","-0,3541348618","0,3896181661"
"1,788186083","-0,08154700538","0,146470669","-0,4125269115","0,445288697"
"1,798140083","-0,02977710103","0,1271131692","-0,2451468551","0,2777434322"
"1,808094083","0,09504396882","0,04563474074","0,04852662742","0,1160634272"
"1,818049083","0,2231178356","-0,01592949651","0,2388704538","0,3272528245"
"1,828003083","0,1960826128","0,03706930071","0,2670183653","0,3333486635"
"1,837957083","0,1003942442","0,0695134173","0,1915881139","0,2271940247"
"1,847912083","0,09313108876","0,0339182362","0,1013111973","0,1417314543"
"1,857866083","0,08312387154","0,04688542362","0,07211897314","0,1196200955"
"1,867820083","0,03288060667","0,08562443331","0,1597383302","0,1841982954"
"1,877775083","0,007204075749","0,07176938273","0,1995093369","0,2121478695"
"1,887729083","0,01448794772","0,03543683119","0,1780670124","0,1821360221"
"1,897683083","-0,02428779893","0,03928111967","0,1470317459","0,1541143661"
"1,907638083","-0,02197455819","0,05062596057","0,1817028111","0,1898993962"
"1,917592083","0,04198357483","0,04492353659","0,2559074861","0,263190779"
"1,927546083","0,06661542758","0,07807213303","0,2585755706","0,2781981288"
"1,937501083","0,04402247152","0,1310920168","0,2431213796","0,2796982304"
"1,947455083","0,004469995368","0,1075612861","0,1622274899","0,1946976364"
"1,957409083","0,007042304305","0,06562023148","0,0404434365","0,07740336159"
"1,967364083","-0,07117607307","0,09314490281","-0,0003461551666","0,1172268149"
"1,977318083","-0,1444264368","0,1111321076","0,02039450347","0,1833719628"
"1,987272083","-0,1147968866","0,1121004065","0,03649773538","0,1645506335"
"1,997227083","-0,0533701411","0,1088290355","0,05186538756","0,1318413796"
"2,007181083","-0,02733982166","0,1359923855","0,03761104524","0,1437219033"
"2,017136083","-0,05182976522","0,1422423647","-0,02603531241","0,1536133209"
"2,027090083","-0,1077297042","0,1232867148","-0,03880738556","0,1682596695"
"2,037044083","-0,09076716911","0,1100554159","-0,03886468828","0,1478557999"
"2,046999083","-0,00982863504","0,1114226411","-0,06227050781","0,1280204014"
"2,056953083","0,001774278204","0,1340047707","-0,0979116261","0,1659732303"
"2,066907083","0,04616841337","0,1040347938","-0,04910257816","0,1239589605"
"2,076862083","0,04602101329","0,0632919433","-0,08757082522","0,1174412755"
"2,086816083","-0,02738687804","0,0636545803","-0,2015032375","0,2130856668"
"2,096770083","-0,1049356579","0,1095557714","-0,2352071732","0,2798863585"
"2,106725083","-0,1794223422","0,09196833339","-0,2088941181","0,290322758"
"2,116679083","-0,1431464721","0,0575688348","-0,2242383814","0,2721909898"
"2,126633083","-0,1156514206","0,06961939808","-0,2492556936","0,2834616596"
"2,136588083","-0,05568694498","0,05149339501","-0,2146132797","0,2276213202"
"2,146542083","-0,02249768756","0,03204149924","-0,09975232959","0,1071603046"
"2,156496083","0,01888433212","0,04413854789","0,01500629425","0,05029928704"
"2,166451083","0,02375276499","0,0601507825","0,09211411178","0,1125491896"
"2,176405083","-0,04984807075","0,03709623445","0,06448426366","0,08954988011"
"2,186360083","-0,1182421117","0,04163718212","0,0117458868","0,1259079734"
"2,196314083","-0,1726529658","-0,004896896929","0,02281758964","0,1742230427"
"2,206268083","-0,09477232911","-0,05836862426","0,05024220049","0,1221186692"
"2,216223083","-0,03774715061","-0,01343193144","0,06480819941","0,07619295815"
"2,226177083","-0,01735015064","0,03906119127","0,001945368648","0,04278538126"
"2,236131083","0,03250234206","0,02484427113","-0,1313179386","0,1375428698"
"2,246086083","-0,02286008017","0,05994236581","-0,231839177","0,2405516046"
"2,256040083","-0,0741343896","0,09424637206","-0,2764031464","0,3012921932"
"2,265994083","-0,07754346251","0,06780690741","-0,2480809879","0,2686167192"
"2,275949083","-0,05277870437","0,02169159863","-0,1796516079","0,1884961997"
"2,285903083","-0,05890634883","0,03144146528","-0,06514792264","0,09328866756"
"2,295857083","-0,07055995013","0,01599677604","-0,0644608748","0,09690102056"
"2,305812083","-0,05528111167","-0,03700925712","-0,05242145777","0,08469767207"
"2,315766083","-0,05765408994","-0,05134633753","0,007667453885","0,07758369877"
"2,325720083","-0,05809774743","0,002099479325","-0,01141902745","0,05924652106"
"2,335675083","-0,06268433536","0,006295989454","-0,04751505911","0,07890910103"
"2,345629083","-0,09473814117","-0,01687374875","-0,01096060574","0,09685129667"
"2,355583083","-0,05296187297","0,001462827176","-0,03083236814","0,06130036522"
"2,365538083","-0,02696195905","0,05299945503","-0,1434012097","0,1552410913"
"2,375492083","-0,03578334267","0,06835654568","-0,2614360285","0,2725836788"
"2,385447083","-0,04247047888","0,06848036047","-0,3328200066","0,3424360643"
"2,395401083","-0,01122309319","0,1176225901","-0,3744703084","0,3926691271"
"2,405355083","-0,03688594482","0,1268337454","-0,4067668194","0,427675832"
"2,415310083","-0,08254550882","0,114663972","-0,4222022992","0,4452149694"
"2,425264083","-0,06918464389","0,06998232745","-0,3634044528","0,3764928119"
"2,435218083","-0,07425908147","0,03640432611","-0,2083269382","0,2241423639"
"2,445173083","-0,0662405297","0,01701291248","-0,03568614185","0,07714108948"
"2,455127083","-0,01972590406","-0,002895504646","0,09568734527","0,09774233107"
"2,465081083","0,02166668401","0,03120198525","0,1580976015","0,1625972346"
"2,475036083","0,03840156596","0,03465180594","0,1609826177","0,1690882348"
"2,484990083","0,03004685867","0,04454021506","0,1185686696","0,1301736297"
"2,494944083","0,02986533231","0,04766193386","0,07633832395","0,09482160997"
"2,504899083","0,01648821624","0,05232158002","-0,01635817051","0,05724507623"
"2,514853083","-0,01951686381","0,05822686583","-0,06898486555","0,09235901446"
"2,524807083","-0,05144643456","0,0667818905","-0,08871220171","0,1223781486"
"2,534762042","-0,03706941948","0,09776559189","-0,03015759945","0,1088197299"
"2,544716042","-0,008725484717","0,07527548287","0,02361690402","0,07937436967"
"2,554670042","-0,01711539407","0,08614161953","0,05765471578","0,1050589434"
"2,564625042","-0,03561286436","0,1174039773","0,136357069","0,1834263347"
"2,574579042","-0,05625381427","0,07934660677","0,1766648501","0,2016701388"
"2,584534042","-0,03387275582","0,06733441584","0,1567053795","0,1738903767"
"2,594488042","-0,02091430267","0,08619095542","0,09994060993","0,1336204115"
"2,604442042","-0,007471499071","0,09657860711","0,02429108799","0,09986644885"
"2,614397042","0,01297108862","0,08730594635","-0,03571713209","0,0952170727"
"2,624351042","-0,02065006334","0,08419080567","-0,0907183814","0,1254764583"
"2,634305042","-0,06811351164","0,1068725206","-0,1042944467","0,1641295761"
"2,644260042","-0,06214260911","0,09432742909","-0,07609858811","0,1361997168"
"2,654214042","-0,04907454807","0,09834256589","-0,04966683447","0,1206083164"
"2,664168042","-0,04266956287","0,0572184404","-0,004062645435","0,07149228353"
"2,674123042","-0,02754065068","0,03092855483","-0,06745640337","0,07915446481"
"2,684077042","-0,0642170459","0,01977162883","-0,1295386308","0,1459280753"
"2,694031042","-0,1089837035","-0,004743937422","-0,1488537383","0,1845464386"
"2,703986042","-0,08301821966","0,005147212576","-0,1475381148","0,1693694598"
"2,713940042","-0,03608671267","0,06106788173","-0,05233842731","0,08815241337"
"2,723894042","-0,07370586178","0,08176746368","0,07316387057","0,1321795148"
"2,733849042","-0,02209764208","0,04816733429","0,07715927303","0,09360529522"
"2,743803042","-0,008284641202","0,02485446721","0,0208207655","0,03346466937"
"2,753758042","-0,0472900144","0,02344941784","-0,01743639708","0,05559000451"
"2,763712042","-0,05308663793","0,03729012446","-0,0751630336","0,0992886002"
"2,773666042","-0,04911933866","0,04436125372","-0,06790546954","0,09482501281"
"2,783621042","-0,03737039577","0,06006890321","-0,03907343388","0,08081802304"
"2,793575042","-0,07084476435","0,06312471293","-0,02773568273","0,09885837402"
"2,803529042","-0,006860254901","0,06197734304","-0,01096703768","0,06331295336"
"2,813484042","0,03798991284","0,08675181303","-0,006734822989","0,09494455425"
"2,823438042","0,02238549868","0,09316255409","-0,09769177079","0,1368358656"
"2,833392042","0,005251123994","0,09682104729","-0,2527517438","0,2707126401"
"2,843347042","-0,001135903867","0,06464981295","-0,2946990842","0,3017091957"
"2,853301042","0,04383496319","0,04887358658","-0,2831040555","0,2906166508"
"2,863255042","0,06103923038","0,07231545785","-0,2261802417","0,2451791484"
"2,873210042","0,05613019134","0,08498750707","-0,1309542418","0,16589903"
"2,883164042","0,04484361246","0,09185763828","-0,0802062571","0,1299300541"
"2,893118042","-0,01332879432","0,06713003738","-0,04682918072","0,08292810647"
"2,903073042","-0,05577228692","0,007985359691","-0,01387836635","0,0580251929"
"2,913027042","-0,08400197715","0,01012198711","0,06927137911","0,109349489"
"2,922981042","-0,08934005563","0,03137683528","0,1383942389","0,1676875568"
"2,932936042","-0,08843809521","0,04503845265","0,1523053497","0,1817874541"
"2,942890042","-0,1205028463","0,03928468281","0,07654823899","0,148067063"
"2,952845042","-0,126431859","0,06628420109","0,01530391753","0,1435716552"
"2,962799042","-0,1106193982","0,07324525651","0,02980267346","0,1359769032"
"2,972753042","-0,1457998198","0,05360720001","0,0392260462","0,1602186071"
"2,982708042","-0,1812149158","0,1200563839","0,06228278697","0,2261228131"
"2,992662042","-0,1653843286","0,1650829594","0,03910851717","0,2369258022"
"3,002616042","-0,1414314472","0,1617281925","0,01701890588","0,2155191539"
"3,012571042","-0,1594541738","0,2056955997","0,01381930947","0,2606286374"
"3,022525042","-0,1822861074","0,2285792629","-0,0595831275","0,2983736809"
"3,032479042","-0,1753666769","0,2306192651","-0,1623391718","0,3321034831"
"3,042434042","-0,1852653734","0,2632466736","-0,2498439234","0,4074850376"
"3,052388042","-0,2577798194","0,2629810273","-0,3158379382","0,4851423082"
"3,062342042","-0,3078657347","0,2150460285","-0,3390601552","0,505952462"
"3,072297042","-0,3101403016","0,2215696573","-0,2768106973","0,4710671734"
"3,082251042","-0,3555228812","0,2506607612","-0,1995631313","0,478594588"
"3,092205042","-0,3607781393","0,2082853681","-0,1907168788","0,4581665508"
"3,102160042","-0,3403995695","0,1944672281","-0,1866571569","0,4342007185"
"3,112114042","-0,3240336149","0,201541354","-0,2189834887","0,4399664411"
"3,122069042","-0,2931827915","0,1449212117","-0,2742484474","0,4268143832"
"3,132023042","-0,2621114184","0,08305913189","-0,2631100863","0,3805629154"
"3,141977042","-0,2402348468","0,09219529672","-0,1466230255","0,2961605409"
"3,151932042","-0,1428882262","0,1107709689","0,01659966052","0,1815566068"
"3,161886042","-0,1094620697","0,120480837","0,07745981991","0,1802709086"
"3,171840042","-0,1289439142","0,1412202714","0,02111955822","0,1923947343"
"3,181795042","-0,1613017113","0,1506889966","-0,1240036565","0,2531843648"
"3,191749042","-0,1645446319","0,1853733459","-0,1932627565","0,3143067074"
"3,201703042","-0,1042156737","0,2263869042","-0,214658888","0,3289230537"
"3,211658042","-0,05884774877","0,2202197362","-0,1633302748","0,2804221254"
"3,221612042","0,02002290835","0,2019495445","-0,0938904959","0,2236067096"
"3,231566042","0,01882352793","0,1969483113","0,05446856797","0,2052066944"
"3,241521042","0,05076904376","0,1580026939","0,2512314677","0,3010973222"
"3,251475042","0,1378750976","0,1378052051","0,3600235927","0,409410313"
"3,261429042","0,1886427252","0,1392759443","0,3495541531","0,4209180114"
"3,271384042","0,1464250242","0,1044430391","0,2506672114","0,3085169153"
"3,281338042","0,05051862305","0,1290218832","0,1394110698","0,1965559055"
"3,291293042","-0,06127523405","0,2076924056","-0,01131436229","0,2168381988"
"3,301247042","-0,1041436799","0,2487614577","-0,1452565312","0,3063129588"
"3,311201042","-0,06998272031","0,2698330322","-0,2316199064","0,3624296172"
"3,321156042","-0,05081837964","0,3414375234","-0,2367660409","0,4185931775"
"3,331110042","-0,04369712879","0,3750488173","-0,2376489705","0,4461480557"
"3,341064042","-0,04963504937","0,3405750956","-0,1428077173","0,3726245805"
"3,351019042","-0,01832434245","0,3479289195","-0,03456523061","0,3501215071"
"3,360973042","0,03097759379","0,3301724605","0,06960876346","0,3388492953"
"3,370927042","0,03437576712","0,2997525951","0,2510379249","0,3924963075"
"3,380882042","-0,008956203056","0,2630415825","0,4410502142","0,5136111166"
"3,390836042","-0,03870461161","0,2352485788","0,5772377139","0,624534482"
"3,400790042","-0,03953118864","0,2091116528","0,6368652803","0,6714817819"
"3,410745042","-0,06628979706","0,1996404242","0,6426949543","0,6762451038"
"3,420699042","-0,09850701883","0,2710961952","0,5891964394","0,6560100792"
"3,430654042","-0,0803258418","0,3153865331","0,4703740007","0,5719900407"
"3,440608042","-0,05489990976","0,3871409324","0,2730386585","0,4769090172"
"3,450562042","-0,07456574053","0,5577134223","0,02841980696","0,5633932876"
"3,460517042","-0,08360276763","0,6278521628","-0,2312141097","0,6742757044"
"3,470471042","-0,1001767278","0,6485873397","-0,4478177816","0,7945071928"
"3,480425042","-0,1142107945","0,6764761464","-0,5017817348","0,8499699945"
"3,490380042","-0,0696293018","0,7419818455","-0,4459367323","0,8684727215"
"3,500334042","-0,04475516419","0,7792270012","-0,4047080147","0,8791964066"
"3,510288042","-0,05663771139","0,7279453851","-0,4236342824","0,8441435418"
"3,520243042","-0,1229071208","0,6605180716","-0,4266584623","0,7958817291"
"3,530197042","-0,1474191422","0,5972946869","-0,2975753295","0,6834064846"
"3,540151292","-0,08901855927","0,5522646944","-0,08933726907","0,5664819011"
"3,550106292","-0,07050961839","0,5340095775","0,05120114386","0,5410724464"
"3,560060292","-0,0367650445","0,4887686102","0,05864698827","0,4936455125"
"3,570014292","-0,021840191","0,4920217086","0,08946239948","0,5005655568"
"3,579969292","-0,0758769695","0,5379117534","0,1128553551","0,5548357416"
"3,589923292","-0,06751215292","0,5817598043","0,08361284494","0,5916024582"
"3,599878292","-0,07493660018","0,6118677755","0,005004047155","0,6164598197"
"3,609832292","-0,09757584061","0,6052545746","-0,03330457091","0,6139734027"
"3,619786292","-0,07038682686","0,6133177388","-0,05210629284","0,619538554"
"3,629741292","-0,1057799684","0,6711487482","-0,05797046542","0,6819022061"
"3,639695292","-0,212218918","0,6850203171","-0,03713742077","0,7181008927"
"3,649649292","-0,226723247","0,7348669535","-0,07000520468","0,7722263909"
"3,659604292","-0,2177935255","0,7623267938","-0,1016439039","0,7993169856"
"3,669558292","-0,2187314554","0,78818362","-0,1391350812","0,8297200969"
"3,679512292","-0,2369622698","0,8308636165","-0,2479213589","0,8988606492"
"3,689467292","-0,3213989326","0,8110389242","-0,3087008268","0,9254067273"
"3,699421292","-0,3269846316","0,8249259152","-0,2861358368","0,9323601407"
"3,709375292","-0,2826190838","0,862104705","-0,2546205139","0,9423002043"
"3,719330292","-0,2903868357","0,8667381848","-0,2407982808","0,9452742499"
"3,729284292","-0,2074885388","0,8766495808","-0,2193530327","0,9271902363"
"3,739238292","-0,1613353145","0,9101635551","-0,2166130275","0,9493934824"
"3,749193292","-0,1876321436","0,9013230036","-0,1848223007","0,9390145159"
"3,759147292","-0,1458918038","0,9093445795","-0,1856514359","0,9394990358"
"3,769102292","-0,1001217548","0,887622685","-0,1873629159","0,9126901221"
"3,779056292","-0,05782330745","0,8603028855","-0,1278505397","0,8716710103"
"3,789010292","0,04728263229","0,8822910476","-0,1054597968","0,8898285839"
"3,798965292","0,1195546746","0,8937657697","-0,07183245957","0,9045830386"
"3,808919292","0,1421326289","0,8934525052","-0,08730126858","0,9088897484"
"3,818873292","0,1215056346","0,9220504329","-0,1553149116","0,9429015547"
"3,828828292","0,1351880005","0,9421587883","-0,1963933557","0,9718586976"
"3,838782292","0,177260992","0,9262275376","-0,2362754595","0,9721856837"
"3,848736292","0,221519152","0,9310582148","-0,2179339135","0,9815474134"
"3,858691292","0,2518855884","0,9541091084","-0,2274333","1,012667984"
"3,868645292","0,2676925492","0,9208337735","-0,2285431015","0,9858124003"
"3,878599292","0,2373730185","0,9094786269","-0,1769279748","0,9564522105"
"3,888554292","0,2590696603","0,9426958551","-0,05969656348","0,9794673265"
"3,898508292","0,2984084116","0,9738882655","0,06147119343","1,020433556"
"3,908463292","0,2664021236","0,9328089443","0,0743005693","0,9729456267"
"3,918417292","0,188119107","0,8716039453","0,1275786442","0,9007544318"
"3,928371292","0,137474947","0,798785499","0,1375154024","0,8221119878"
"3,938326292","0,07508227807","0,7237157285","0,2037012058","0,7555765914"
"3,948280292","0,08358673347","0,7515006009","0,4255714649","0,8676698491"
"3,958234292","0,1291488591","0,8500476001","0,6460968643","1,075500585"
"3,968189292","0,2346114699","0,8961242442","0,6100242215","1,109148662"
"3,978143292","0,2587664822","0,8986655172","0,4466302121","1,036358215"
"3,988097292","0,1417717917","0,8998498707","0,2550643176","0,945984586"
"3,998052292","0,1176449008","0,8879102949","0,08207385778","0,8994226663"
"4,008006292","0,1483238892","0,8827759279","0,01812461436","0,8953333551"
"4,017960292","0,1955570029","0,8792117576","0,04205785275","0,9016788337"
"4,027915292","0,2689670778","0,8557224691","0,136229015","0,9072830747"
"4,037869292","0,2942280179","0,8113828135","0,3280937022","0,9233404973"
"4,047823292","0,3231620874","0,7353497873","0,5830404907","0,9925267041"
"4,057778292","0,3690097399","0,7102234977","0,8224500579","1,147610431"
"4,067732292","0,307118826","0,6572670928","1,050706646","1,276834547"
"4,077687292","0,1999314328","0,5384749865","1,199343452","1,329794197"
"4,087641292","0,1460373903","0,4133055048","1,128931282","1,211046737"
"4,097595292","0,05525445202","0,2648896133","1,091603826","1,124641487"
"4,107550292","-0,008390370738","0,1994208064","1,141812113","1,159126377"
"4,117504292","0,06189659664","0,1567000074","1,328399688","1,339041378"
"4,127458292","0,1689548395","0,1284602398","1,56554112","1,579862896"
"4,137413292","0,234048785","0,1085239571","1,798539215","1,816947878"
"4,147367292","0,2885728467","0,1407575922","2,067614631","2,092395099"
"4,157321292","0,3599718083","0,1943259265","2,244022204","2,281003709"
"4,167276292","0,5543379709","0,1748904577","2,433049237","2,501520707"
"4,177230292","0,6930858202","0,1993437146","2,657423859","2,753544522"
"4,187184292","0,5830650856","0,1656685581","2,769448324","2,835005289"
"4,197139292","0,4332714805","-0,08581693461","2,888530964","2,92210538"
"4,207093292","0,4392318397","-0,2632165422","3,043326058","3,086104511"
"4,217048292","0,2454778441","-0,3448616163","3,205437189","3,233267152"
"4,227002292","0,1540363448","-0,4573237462","3,284883308","3,32014014"
"4,236956292","0,2171601076","-0,5394314448","3,097888767","3,151992958"
"4,246911292","0,1164620639","-0,6665048895","2,763764831","2,845380154"
"4,256865292","-0,07084984411","-0,7200286936","2,357456433","2,465980911"
"4,266819292","-0,2651108756","-0,7200938901","1,718940484","1,882438677"
"4,276774292","-0,520525679","-0,8856917882","0,9382763833","1,391315743"
"4,286728292","-0,8754076322","-1,017916264","0,1511107635","1,351046449"
"4,296682292","-1,087247285","-1,061794355","-0,5067588848","1,601973308"
"4,306637292","-1,233864829","-1,149122375","-1,039299898","1,980668808"
"4,316591292","-1,344857554","-1,113611942","-1,299910884","2,176819171"
"4,326545292","-1,099388224","-0,9518711597","-1,350746577","1,984749225"
"4,336500292","-0,6663250145","-0,8235604441","-1,269257441","1,653255963"
"4,346454292","-0,488841335","-0,719581674","-1,259941657","1,531083477"
"4,356408292","-0,5070629765","-0,6143830284","-1,272070536","1,500913994"
"4,366363292","-0,456078472","-0,585514265","-1,192425612","1,404533149"
"4,376317292","-0,4292926329","-0,6780423962","-1,102255114","1,3634515"
"4,386272292","-0,4040306879","-0,7270737114","-1,066068451","1,352175625"
"4,396226292","-0,3619349379","-0,6713022376","-1,060636387","1,306366388"
"4,406180292","-0,3026022174","-0,6698697428","-1,172383111","1,383754217"
"4,416135292","-0,2679808535","-0,6606133812","-1,266523283","1,453377103"
"4,426089292","-0,2695470668","-0,5792973226","-1,134573845","1,302113212"
"4,436043292","-0,1694088575","-0,4520884052","-0,9615950793","1,075987167"
"4,445998292","-0,09516573709","-0,356880495","-0,8163215911","0,8959917106"
"4,455952292","-0,08058018655","-0,3794897776","-0,7037714607","0,8036167784"
"4,465906292","-0,005918734409","-0,4209139018","-0,6149019688","0,7451898922"
"4,475861292","0,005332916491","-0,4029757771","-0,4608284211","0,6121933932"
"4,485815292","-0,0003228393942","-0,434404817","-0,4268555135","0,6090265008"
"4,495769292","0,03710829433","-0,5059411517","-0,5863125926","0,7753166648"
"4,505724292","-0,05175012432","-0,4726439994","-0,8106421906","0,9397931617"
"4,515678292","-0,1957682884","-0,3866687697","-0,9410011858","1,036012158"
"4,525633292","-0,2272314614","-0,3589652467","-0,91646393","1,010146683"
"4,535586583","-0,1120522766","-0,2788804107","-0,9338295758","0,981003401"
"4,545540583","-0,03571888626","-0,1569207397","-1,03398127","1,046430707"
"4,555495583","-0,05309915006","-0,02879521647","-1,233125156","1,234603716"
"4,565449583","-0,06168512844","0,09897600207","-1,453052385","1,457725125"
"4,575403583","-0,02654811323","0,1865779272","-1,564379278","1,575689897"
"4,585358583","0,01193818711","0,2494774858","-1,669169569","1,687752525"
"4,595312583","0,1608236466","0,2842281096","-1,677894199","1,709379656"
"4,605266583","0,2182508326","0,3045624233","-1,571942652","1,615981249"
"4,615221583","0,08631148115","0,33472386","-1,483752607","1,523486636"
"4,625175583","0,07117567107","0,3249367905","-1,547282605","1,58263494"
"4,635129583","0,006917036846","0,380114041","-1,547055733","1,593083792"
"4,645084583","-0,06166466318","0,4388526113","-1,380748056","1,450123904"
"4,655038583","-0,01004507795","0,4868406736","-1,259772087","1,35060744"
"4,664993583","0,02170976155","0,5324989494","-1,15892282","1,27558949"
"4,674947583","-0,001686775535","0,5342140473","-1,171587304","1,28763516"
"4,684901583","-0,06293562859","0,5390270733","-1,213442259","1,329267917"
"4,694856583","-0,1290130392","0,5445152699","-1,165251262","1,292652987"
"4,704810583","-0,1369050993","0,4712797344","-1,015294154","1,127683383"
"4,714764583","-0,2059309319","0,456681795","-0,8141166061","0,9559035825"
"4,724719583","-0,3759429662","0,3741069771","-0,4930664599","0,7241572191"
"4,734673583","-0,5223520568","0,2462401017","0,113361724","0,5885038142"
"4,744627583","-0,5425642367","0,2161335192","0,8811297905","1,057108962"
"4,754582583","-0,5538495822","0,1074954136","1,626505945","1,721576665"
"4,764536583","-0,2968955176","0,09036816973","2,153196234","2,175446477"
"4,774490583","-0,03215266943","0,1132865873","2,319291657","2,322279362"
"4,784445583","-0,09874302708","0,07008308228","2,223205531","2,226500541"
"4,794399583","-0,1914328703","0,1483581502","2,007027537","2,021587549"
"4,804354583","-0,219484522","0,2368006491","1,837219716","1,865375107"
"4,814308583","-0,2083871279","0,2190175487","1,765920523","1,791610777"
"4,824262583","-0,1338517564","0,343052634","1,708942915","1,748166836"
"4,834217583","-0,1170812475","0,4043197231","1,611120751","1,665200448"
"4,844171583","-0,03867436141","0,3483327794","1,492258551","1,53286236"
"4,854125583","-0,02216960851","0,3819763061","1,435920628","1,486023365"
"4,864080583","-0,04626952909","0,3268235773","1,471724884","1,508286662"
"4,874034583","0,01574775774","0,1696356564","1,530239725","1,539694081"
"4,883988583","0,05537031826","0,0004493219778","1,553884696","1,554870966"
"4,893943583","0,04830012091","-0,1189041536","1,510619393","1,516061361"
"4,903897583","0,03884108014","-0,1908822453","1,361458091","1,375322797"
"4,913851583","0,08586643495","-0,231781655","1,138258175","1,164786441"
"4,923806583","0,1393968172","-0,2039462407","1,006053214","1,035938517"
"4,933760583","0,2098683373","-0,1719957753","0,8820337701","0,9228276314"
"4,943715583","0,2808308408","-0,1882341145","0,6622217309","0,7435291951"
"4,953669583","0,3595680215","-0,2460409309","0,4566757286","0,631171944"
"4,963623583","0,4464701811","-0,29069217","0,2029270345","0,5701025711"
"4,973578583","0,4589882293","-0,3538610294","-0,003645154238","0,5795697627"
"4,983532583","0,4056879715","-0,3844367413","-0,008691301346","0,5589721612"
"4,993486583","0,2759464423","-0,4845053322","0,2718926042","0,6203365572"
"5,003441583","0,1799038787","-0,6169935179","0,758077476","0,9938449911"
"5,013395583","0,1410190541","-0,5305984946","1,260088422","1,374497714"
"5,023349583","0,0309634554","-0,5120959674","1,505977873","1,590965232"
"5,033304583","-0,1171056962","-0,6480020334","1,452739559","1,595014924"
"5,043258583","-0,1319676739","-0,7012853707","1,267606772","1,454662698"
"5,053212583","-0,1109740135","-0,6424043477","1,019887142","1,21044139"
"5,063167583","-0,1486975446","-0,5539974437","0,6664270484","0,8792889959"
"5,073121583","-0,218377644","-0,5739079439","0,1968903691","0,6448448968"
"5,083076583","-0,2524282831","-0,5855634181","-0,2393505102","0,681097072"
"5,093030583","-0,210987604","-0,4836542699","-0,6305654901","0,8222226336"
"5,102984583","-0,1253298416","-0,3787410416","-0,8755626565","0,9621654282"
"5,112939583","-0,07625118216","-0,2676592201","-0,9859814769","1,024507283"
"5,122893583","-0,05148729198","-0,1751056535","-1,08114842","1,096446459"
"5,132847583","0,06275441973","-0,1168428273","-1,211364158","1,218603089"
"5,142802583","0,1054152849","-0,07003140751","-1,365687382","1,371538846"
"5,152756583","0,2292749171","-0,06722467091","-1,499139555","1,518059797"
"5,162710583","0,3459572384","-0,02680228438","-1,473781934","1,514079907"
"5,172665583","0,2788943161","0,02528040033","-1,514825295","1,540492393"
"5,182619583","0,2846509364","-0,004642652683","-1,577512709","1,60299534"
"5,192573583","0,2900162319","0,02182966601","-1,580963736","1,607492546"
"5,202528583","0,193389842","0,04468668781","-1,600477064","1,612737847"
"5,212482583","0,1357576746","0,04555178337","-1,63079897","1,637073729"
"5,222437583","0,1150502811","0,02578143362","-1,580580159","1,584971573"
"5,232391583","0,0537867278","-0,01515093975","-1,426305467","1,427399681"
"5,242345583","0,1017529362","-0,05014020313","-1,314484484","1,319369986"
"5,252300583","0,2263366182","-0,04723165188","-1,254362828","1,2754941"
"5,262254583","0,1687435174","-0,04908320926","-1,24750229","1,25981963"
"5,272208583","0,1005261903","-0,09729635283","-1,289543186","1,297109758"
"5,282163583","0,1860440764","-0,08427131452","-1,355554742","1,370854738"
"5,292117583","0,1723377278","0,0157890537","-1,459752125","1,46997478"
"5,302071583","0,08284422845","0,07418702368","-1,460587108","1,46481452"
"5,312026583","0,03102990353","0,07105675332","-1,320219433","1,322494336"
"5,321980583","0,02461427456","0,09912817586","-1,18142583","1,185832724"
"5,331934583","0,05303480328","0,1731795441","-1,127078884","1,141538722"
"5,341889583","-0,007711545546","0,1233034159","-1,094951357","1,101899122"
"5,351843583","-0,05415592466","0,1066845326","-1,052332172","1,059111634"
"5,361798583","-0,1284319174","0,1347111509","-0,9910200226","1,008346437"
"5,371752583","-0,2548127777","0,1218901073","-0,8352618921","0,8817307856"
"5,381706583","-0,2917738318","0,08392322246","-0,7174212009","0,7790174938"
"5,391661583","-0,1925844246","0,1076447186","-0,6718175966","0,7071174083"
"5,401615583","-0,1240093301","0,1935511338","-0,6345690787","0,6749209368"
"5,411569583","-0,2054028552","0,244847368","-0,6814508843","0,7526724881"
"5,421524583","-0,2729723291","0,2558821238","-0,7021330708","0,7956006554"
"5,431478583","-0,2723342517","0,3250386051","-0,6175221062","0,7490991864"
"5,441432583","-0,2301036138","0,3979575139","-0,4880799544","0,6704773656"
"5,451387583","-0,1742234914","0,4017904368","-0,4581831408","0,6338147762"
"5,461341583","-0,1512534722","0,4172922826","-0,4588696039","0,638413483"
"5,471295583","-0,1217978949","0,4727845519","-0,3805642766","0,6190227203"
"5,481250583","-0,06891426955","0,4992568706","-0,2955440068","0,5842541051"
"5,491204583","0,02036175907","0,4763883736","-0,1921096855","0,5140686871"
"5,501159583","0,09000756098","0,4819897869","-0,07289022088","0,4957100968"
"5,511113583","0,1016225798","0,5336926584","0,007356966734","0,5433315078"
"5,521067583","0,1792766734","0,5428546972","-0,009961316586","0,5717784324"
"5,531022583","0,192719002","0,5584720255","-0,1237832165","0,603617347"
"5,540976708","0,1558449069","0,5613606231","-0,1778448182","0,6091323038"
"5,550930708","0,09387844515","0,5282213822","-0,14731709","0,5563571839"
"5,560885708","0,06652905324","0,4379036082","0,05403879762","0,4462128154"
"5,570839708","0,1247063639","0,3639597921","0,3864670408","0,5453211724"
"5,580793708","-0,001634717043","0,2634282479","0,6541560817","0,7052072698"
"5,590748708","-0,256133682","0,1503524162","0,9061319","0,9535645401"
"5,600702708","-0,3877103781","0,05166256227","1,340494069","1,396392748"
"5,610657708","-0,3735583621","0,07445142746","1,797180322","1,837102604"
"5,620611708","-0,4141075235","0,1555986477","1,985440786","2,034126617"
"5,630565708","-0,6689405472","0,06271548092","1,904624664","2,019655861"
"5,640520708","-0,7780284682","0,01947722152","1,853474976","2,010243056"
"5,650474708","-0,7836795098","0,006521253437","1,691525229","1,864256876"
"5,660428708","-0,9414488632","-0,161256304","1,564845886","1,833322723"
"5,670383708","-1,027847249","-0,3236433133","1,685129544","2,000219123"
"5,680337708","-1,071270719","-0,4180075067","1,997874305","2,305179596"
"5,690291708","-1,133979987","-0,5065812756","2,290023419","2,605137704"
"5,700246708","-1,056968137","-0,6126824389","2,46475401","2,750922344"
"5,710200708","-0,9235745828","-0,778220403","2,543671541","2,815827039"
"5,720154708","-0,7108998013","-0,9098358187","2,716192469","2,951420213"
"5,730109708","-0,4760979132","-0,8667454208","2,881264629","3,046244034"
"5,740063708","-0,2545737362","-0,8077213602","3,008128744","3,125069619"
"5,750018708","-0,06080230394","-0,7624236383","3,208926222","3,298817095"
"5,759972708","0,09552040726","-0,5794484731","3,186112141","3,239783211"
"5,769926708","0,1158622401","-0,4116690884","2,875892792","2,907516956"
"5,779881708","0,03757060809","-0,2602063225","2,260937029","2,276171156"
"5,789835708","-0,04727278796","-0,0428964257","1,388286871","1,389753667"
"5,799789708","-0,1860505814","0,1167587919","0,4549507999","0,5052006183"
"5,809744708","-0,2940318803","0,2562314584","-0,3973294133","0,5567584481"
"5,819698708","-0,3978632641","0,3230966717","-1,031170514","1,151520414"
"5,829652708","-0,4242850775","0,2675287176","-1,317081817","1,409359413"
"5,839607708","-0,2906874191","0,2527378201","-1,3198265","1,374888204"
"5,849561708","-0,2194740335","0,2303365888","-1,246527559","1,286489313"
"5,859516708","-0,1901785878","0,1447480427","-1,155237905","1,179701025"
"5,869470708","-0,1875892579","0,05104326904","-1,135016479","1,151545723"
"5,879424708","-0,1316573329","0,005780201079","-1,258920148","1,265798958"
"5,889379708","-0,07184327692","0,0773558217","-1,43884599","1,442713819"
"5,899333708","-0,136649978","0,1372146911","-1,601443609","1,613109643"
"5,909287708","-0,1696867099","0,153541981","-1,786533127","1,801130016"
"5,919242708","-0,1557022166","0,2163216534","-1,947885289","1,966035437"
"5,929196708","-0,1683035875","0,2845791253","-2,002921622","2,030026207"
"5,939150708","-0,09612201266","0,3506680477","-1,960222914","1,993660301"
"5,949105708","0,001309922487","0,4621308153","-1,871066909","1,927292916"
"5,959059708","0,03299441267","0,4859245976","-1,823478175","1,887401388"
"5,969013708","0,07318309329","0,4571906124","-1,778531798","1,837812389"
"5,978968708","0,1670628084","0,4664697417","-1,689628392","1,760780538"
"5,988922708","0,1197406708","0,4849556409","-1,565728816","1,643480005"
"5,998877708","0,1110296351","0,4845852563","-1,508014458","1,587846988"
"6,008831708","0,1019102811","0,4763236888","-1,567040931","1,641001902"
"6,018785708","0,0214607067","0,4878942687","-1,729572476","1,797198467"
"6,028740708","-0,0559846779","0,4379361698","-1,859957784","1,911639435"
"6,038694708","-0,0001891574264","0,3958950913","-1,805935358","1,848820023"
"6,048648708","0,09461792607","0,446732246","-1,431677304","1,502738219"
"6,058603708","0,1997862026","0,4644872432","-0,9611670631","1,086050206"
"6,068557708","0,2531613412","0,4044782922","-0,6403946596","0,798622986"
"6,078511708","0,2426102599","0,3852978535","-0,4203879082","0,6197097445"
"6,088466708","0,1748996488","0,4109753894","-0,2837133354","0,5291350626"
"6,098420708","0,07915850915","0,3508815441","-0,2011038727","0,412100346"
"6,108374708","0,09289032966","0,3261400378","-0,2257200658","0,4073640702"
"6,118329708","0,1840530995","0,3711107907","-0,2549257386","0,4864009607"
"6,128283708","0,2487451585","0,3844820572","-0,2318882936","0,5132960033"
"6,138238708","0,2892589809","0,3985571459","-0,2285156196","0,5428977297"
"6,148192708","0,3045360743","0,4864606046","-0,2349604207","0,6201552545"
"6,158146708","0,3657078172","0,5335797706","-0,2776725769","0,7039542877"
"6,168101708","0,356888608","0,6122939279","-0,2848605591","0,7638186112"
"6,178055708","0,2921556184","0,72645588","-0,3158432007","0,8443044346"
"6,188009708","0,1913547369","0,7893890235","-0,3751784062","0,8947125249"
"6,197964708","0,1262560771","0,7787121539","-0,4284763616","0,8977333725"
"6,207918708","0,09303979911","0,7159315496","-0,4521885753","0,8518737556"
"6,217872708","0,132402524","0,6039113596","-0,2747852218","0,6765694914"
"6,227827708","0,1130730908","0,487403797","0,001517937183","0,5003501667"
"6,237781708","0,05566593155","0,3769789101","0,3932527345","0,5475942913"
"6,247736708","0,1611524794","0,2108986167","0,9305071878","0,9676218139"
"6,257690708","0,192637616","0,06553113453","1,336443118","1,351844587"
"6,267644708","0,02449917577","0,03701956283","1,601062955","1,601678259"
"6,277599708","-0,1546129534","-0,08829105601","1,74432734","1,753390528"
"6,287553708","-0,2286012813","-0,2488716411","1,760168617","1,792313923"
"6,297507708","-0,2196410081","-0,2789414592","1,661887447","1,699388242"
"6,307462708","-0,2515976496","-0,258258688","1,477065731","1,520434839"
"6,317416708","-0,2941288345","-0,2059306395","1,136416887","1,191789638"
"6,327370708","-0,2839622075","-0,1928185325","0,8996064073","0,9628630275"
"6,337325708","-0,08387501948","-0,2601959437","0,8497852063","0,8926767863"
"6,347279708","0,1855901132","-0,2341422674","0,9286501122","0,9755292524"
"6,357234708","0,3396476541","-0,2118844024","1,317090003","1,376583309"
"6,367188708","0,3279489836","-0,3194639793","1,886833341","1,941583845"
"6,377142708","0,2699826843","-0,4445655968","2,378405253","2,434613063"
"6,387097708","0,2011707502","-0,6293459802","2,860110573","2,93543498"
"6,397051708","0,1164682766","-0,6966425353","3,274821419","3,350124029"
"6,407005708","0,04518647857","-0,6409229556","3,364555129","3,425354766"
"6,416960708","-0,05565496802","-0,6568392228","2,922603275","2,996021552"
"6,426914708","-0,1299462549","-0,6172935531","2,109049755","2,201369626"
"6,436868708","-0,1891785494","-0,5634991691","1,310671515","1,439159358"
"6,446823708","-0,2360259296","-0,4755721754","0,66652879","0,8521371728"
"6,456777708","-0,1719924863","-0,3834582463","0,2096010464","0,4696320269"
"6,466731708","-0,0610740944","-0,3677254721","-0,03362909138","0,3742766138"
"6,476686708","0,09847844057","-0,3392079435","-0,1570164514","0,3865413279"
"6,486640708","0,2388923078","-0,2977326745","-0,3518474311","0,5191443873"
"6,496595708","0,2285004169","-0,2547637342","-0,4296300173","0,5492712923"
"6,506549708","0,1879516574","-0,2595420422","-0,4277255791","0,5344502486"
"6,516503708","0,2534830843","-0,277381349","-0,5301565182","0,6498153743"
"6,526458708","0,2544421738","-0,2370426142","-0,6893528116","0,7720992939"
"6,536412708","0,2273410602","-0,2551799463","-0,8964290303","0,9593673796"
"6,546367333","0,2286344643","-0,2940582659","-1,170117314","1,227973335"
"6,556322333","0,2307471364","-0,2374590091","-1,413457965","1,451721199"
"6,566276333","0,2189074018","-0,1957212183","-1,556741061","1,584193794"
"6,576230333","0,2672004329","-0,1841077709","-1,646577097","1,678245477"
"6,586185333","0,337493613","-0,1075719573","-1,672575572","1,709673276"
"6,596139333","0,3130724975","-0,05655945919","-1,74801284","1,776727962"
"6,606094333","0,3039792001","-0,04595370635","-1,787165796","1,813415749"
"6,616048333","0,3260585057","-0,008765962981","-1,653706607","1,685567125"
"6,626002333","0,3910139818","0,04397815146","-1,521713315","1,571762522"
"6,635957333","0,4807368017","0,05669332389","-1,478448597","1,555677428"
"6,645911333","0,4990813445","0,05700498048","-1,482866753","1,565639027"
"6,655865333","0,5077616092","0,08353913348","-1,535323879","1,619265282"
"6,665820333","0,5864864011","0,1301524423","-1,596410326","1,705705685"
"6,675774333","0,5771247896","0,153891407","-1,546593218","1,657922245"
"6,685728333","0,5512502025","0,1512349438","-1,402370474","1,514394843"
"6,695683333","0,5003044358","0,1730468123","-1,253999716","1,361163111"
"6,705637333","0,4164134827","0,1829335038","-1,129338248","1,217485003"
"6,715592333","0,4404432001","0,1673625878","-1,034599321","1,136836049"
"6,725546333","0,55685136","0,1575785881","-0,987604664","1,1446735"
"6,735500333","0,5713426607","0,1825605246","-0,9340102547","1,110016188"
"6,745455333","0,5405031663","0,2175526019","-0,9029264563","1,074592478"
"6,755409333","0,4726718468","0,2408776568","-0,894096576","1,039639076"
"6,765363333","0,3994890459","0,2868427652","-0,7492014027","0,896199203"
"6,775318333","0,4386867331","0,3370950522","-0,5789380842","0,8007798882"
"6,785272333","0,4242047148","0,3408727189","-0,4400316292","0,699836899"
"6,795226333","0,3621747468","0,3388463663","-0,2610623914","0,5604828092"
"6,805181333","0,3395434275","0,3251267519","-0,09074235499","0,4787810762"
"6,815135333","0,1886484993","0,2987153904","0,1520697069","0,3846353293"
"6,825090333","0,04184216358","0,2967589121","0,3424234736","0,4550499465"
"6,835044333","0,04662704978","0,2810839887","0,5589113706","0,627346962"
"6,844998333","-0,03423851743","0,2142931446","0,6725759804","0,7067193767"
"6,854953333","-0,1112510619","0,2296640128","0,8902362442","0,9260901295"
"6,864907333","-0,147334449","0,3303289466","1,151305068","1,206784161"
"6,874861333","-0,1918395076","0,3606685406","1,240067555","1,305623121"
"6,884816333","-0,1510671652","0,3316101446","1,175330107","1,230523237"
"6,894770333","-0,1571040865","0,3105877233","1,093838047","1,147879829"
"6,904724333","-0,1366601375","0,295309972","1,075930949","1,124060221"
"6,914679333","-0,09941326417","0,2575646601","1,191339199","1,222911133"
"6,924633333","-0,08622790251","0,2474561398","1,322191699","1,347909745"
"6,934587333","-0,1231873121","0,2253046943","1,380739285","1,404413861"
"6,944542333","-0,2408073806","0,1253799449","1,32630697","1,353808887"
"6,954496333","-0,4353724216","-0,009351525083","1,308312163","1,378882632"
"6,964451333","-0,6345433509","-0,1148755682","1,405030373","1,545946962"
"6,974405333","-0,7351945437","-0,2250589285","1,5806819","1,757759315"
"6,984359333","-0,7714339784","-0,3400434741","1,684278774","1,883490095"
"6,994314333","-0,7657889302","-0,411101543","1,652824847","1,867422593"
"7,004268333","-0,7076621249","-0,5634817006","1,521014573","1,769684334"
"7,014222333","-0,520545194","-0,6320685169","1,502456095","1,711096791"
"7,024177333","-0,295274706","-0,7603469997","1,704849864","1,88992798"
"7,034131333","-0,08596989412","-0,8903737999","2,106939495","2,288962726"
"7,044085333","0,1563301892","-0,8060171892","2,345100682","2,484673026"
"7,054040333","0,2283399839","-0,7132221691","2,30698853","2,425493989"
"7,063994333","0,0301795996","-0,672642931","1,954177478","2,066922576"
"7,073949333","-0,2108020645","-0,5423651025","1,307412862","1,431057583"
"7,083903333","-0,476274024","-0,3234840497","0,5200969684","0,7758735289"
"7,093857333","-0,6912908712","-0,1989035654","-0,1657013208","0,7381751992"
"7,103812333","-0,8363837535","-0,07726328038","-0,7013723481","1,094271707"
"7,113766333","-0,9560336463","-0,01520239525","-0,9980080301","1,382118473"
"7,123720333","-1,110948024","-0,009212671984","-1,13084566","1,585276724"
"7,133675333","-1,212250304","0,007363873757","-1,279918669","1,762894445"
"7,143629333","-1,252511453","-0,001603123806","-1,39517723","1,874915202"
"7,153583333","-1,207538471","0,01659812562","-1,460076646","1,894795099"
"7,163538333","-1,034214282","0,09977498755","-1,510041688","1,832970302"
"7,173492333","-0,8384840003","0,1852226157","-1,676222481","1,883370553"
"7,183447333","-0,5760766762","0,1649787145","-1,846005158","1,940829038"
"7,193401333","-0,3461870705","0,1783951509","-1,928498846","1,967429317"
"7,203355333","-0,3039491235","0,2158297564","-1,861916601","1,898868343"
"7,213310333","-0,2517325741","0,2135112988","-1,715276619","1,746748477"
"7,223264333","-0,1504253602","0,2475863135","-1,68834025","1,713014761"
"7,233218333","-0,109330215","0,236166884","-1,713612501","1,733261578"
"7,243173333","-0,2069814207","0,2073902507","-1,684830751","1,71011891"
"7,253127333","-0,2409817738","0,2168979696","-1,619577579","1,651710773"
"7,263081333","-0,1480368092","0,2239021665","-1,533375587","1,556691288"
"7,273036333","-0,122867908","0,2244134324","-1,410987516","1,433995705"
"7,282990333","-0,1006595982","0,2045189024","-1,344283065","1,363472513"
"7,292945333","-0,02466837958","0,2105106539","-1,422473202","1,438177066"
"7,302899333","0,008841501698","0,2628867227","-1,489536672","1,512582923"
"7,312853333","0,007571924999","0,3197286389","-1,45988895","1,49450978"
"7,322808333","-0,01515729859","0,3824415252","-1,371009518","1,423431896"
"7,332762333","-0,05372005127","0,4202469172","-1,235373411","1,30600183"
"7,342716333","-0,06416661367","0,4630515325","-1,214902309","1,301737952"
"7,352671333","-0,01268801942","0,5149168104","-1,27414045","1,374312262"
"7,362625333","0,02424825713","0,5668684444","-1,316556153","1,433613586"
"7,372579333","0,03303596444","0,6046456237","-1,342919494","1,473132877"
"7,382534333","0,01042127319","0,6648273964","-1,263449401","1,427728426"
"7,392488333","-0,008673540428","0,7000909308","-1,09969111","1,303657578"
"7,402443333","-0,07880467951","0,7195644978","-1,03191311","1,260487172"
"7,412397333","-0,07421154544","0,7426694781","-1,005446273","1,252193082"
"7,422351333","-0,008452369496","0,7693046417","-0,8464628184","1,143853302"
"7,432306333","0,05958868235","0,8050654817","-0,5254769915","0,9632275482"
"7,442260333","0,2203317104","0,9093002138","-0,1432111752","0,9465106349"
"7,452214333","0,3080047888","1,060587636","0,1541220796","1,11510838"
"7,462169333","0,3209315939","1,137346741","0,4702710897","1,271892131"
"7,472123333","0,2274228481","1,16386898","0,9747828895","1,53509408"
"7,482077333","-0,009113908857","1,137207138","1,706734421","2,050918215"
"7,492032333","-0,04944178976","1,021613971","2,452870129","2,657576239"
"7,501986333","0,09001306102","0,8446433841","3,016635273","3,133945304"
"7,511941333","0,1981987567","0,6493110788","3,239505991","3,309877141"
"7,521895333","0,1490555403","0,4358467039","3,081095563","3,115337826"
"7,531849333","-0,0386982619","0,1985521477","2,787688129","2,795017999"
"7,541803917","-0,1728637214","0,04810807642","2,410891798","2,417559827"
"7,551757917","-0,3082682059","0,06416241098","2,022344903","2,046710778"
"7,561711917","-0,3977776755","0,04942497902","1,682010055","1,729111833"
"7,571666917","-0,2889206464","-0,08684452794","1,252651933","1,288469626"
"7,581620917","-0,2624780023","-0,2370802557","1,007918476","1,068176672"
"7,591574917","-0,2344116595","-0,4514971055","1,004731743","1,126181308"
"7,601529917","-0,03048935585","-0,6932619676","0,9660307771","1,189435672"
"7,611483917","0,03950583547","-0,7833516271","0,9289272702","1,215773974"
"7,621438917","0,07089178875","-0,8094530131","0,9539656323","1,253112227"
"7,631392917","0,1199799681","-0,9310456433","1,019902344","1,386160876"
"7,641346917","0,1476218031","-1,140792943","1,252175385","1,700336417"
"7,651301917","0,3015939016","-1,191117151","1,746958002","2,135785853"
"7,661255917","0,5295634644","-1,157281214","2,170013995","2,515690365"
"7,671209917","0,6226791311","-1,065687797","2,389518471","2,689464315"
"7,681164917","0,5789703901","-0,9018106614","2,026688215","2,292582452"
"7,691118917","0,6244582196","-0,7075412337","1,152335932","1,489443106"
"7,701072917","0,6600882281","-0,5636839046","0,2168907702","0,8947053255"
"7,711027917","0,6756424065","-0,4881919651","-0,5646480739","1,006802614"
"7,720981917","0,5279565764","-0,4564614281","-1,077697978","1,283950199"
"7,730936917","0,5133293279","-0,4237340505","-1,295951734","1,456896854"
"7,740890917","0,5497223981","-0,445977809","-1,277662228","1,460654542"
"7,750844917","0,5240758525","-0,5799401508","-0,9924537599","1,263309362"
"7,760799917","0,5641636321","-0,6673346825","-0,6744874352","1,103879288"
"7,770753917","0,5565388629","-0,6527594011","-0,4579065675","0,9723727506"
"7,780707917","0,5345575713","-0,6554631536","-0,307801525","0,9000697315"
"7,790662917","0,5021865083","-0,6403798223","-0,3766390407","0,8967355089"
"7,800616917","0,422218306","-0,5307363427","-0,5425151932","0,8684883985"
"7,810570917","0,3784483885","-0,4396016396","-0,7767780411","0,9694621754"
"7,820525917","0,4358237536","-0,4429088978","-1,060445184","1,229086906"
"7,830479917","0,4764173904","-0,3925284107","-1,177091289","1,329133547"
"7,840434917","0,3834576251","-0,3632474551","-1,226433603","1,335338102"
"7,850388917","0,3012087893","-0,372905155","-1,286091574","1,372521959"
"7,860342917","0,2320621021","-0,3341433046","-1,311486617","1,373135723"
"7,870297917","0,1510310952","-0,298174121","-1,233184213","1,277678168"
"7,880251917","0,1997139895","-0,2672125294","-1,209043398","1,254222529"
"7,890205917","0,2507862753","-0,2471664834","-1,307839708","1,354411211"
"7,900160917","0,1414291266","-0,2312411165","-1,385924011","1,412182713"
"7,910114917","0,03841339286","-0,1384685717","-1,440122437","1,447273909"
"7,920068917","0,0276475725","-0,1082035296","-1,513489791","1,517604606"
"7,930023917","0,1026394289","-0,02759955224","-1,569283923","1,572879086"
"7,939977917","0,1516400827","0,03075682942","-1,534983571","1,542762218"
"7,949932917","0,1651593935","0,004789673612","-1,449527099","1,458913766"
"7,959886917","0,2115289831","0,06615612879","-1,358791176","1,376747836"
"7,969840917","0,2112934134","0,07543090917","-1,215261328","1,235797242"
"7,979795917","0,2466534999","0,03695352584","-1,136077164","1,163131478"
"7,989749917","0,3206519143","0,09039181441","-1,135707035","1,183561912"
"7,999703917","0,3434997633","0,1661247323","-1,121297742","1,184440011"
"8,009658917","0,3040869716","0,1730487858","-0,9691859347","1,030405815"
"8,019612917","0,2834587257","0,1695533203","-0,7334682995","0,8044084311"
"8,029566917","0,3797676665","0,2915728703","-0,6039641672","0,7707210485"
"8,039521917","0,4150596695","0,3257662911","-0,5552457511","0,765960867"
"8,049475917","0,4002783103","0,3133608384","-0,5194584525","0,7268114092"
"8,059430917","0,3456883761","0,3617904751","-0,3743709058","0,6249370979"
"8,069384917","0,2745667552","0,3839495952","-0,1686915869","0,5012594599"
"8,079338917","0,1385190039","0,3971221295","0,03707427084","0,4222179553"
"8,089293917","0,07017634537","0,4315940239","0,1242369604","0,4545689643"
"8,099247917","-0,09826381121","0,4211004645","0,1851199239","0,4703730053"
"8,109201917","-0,2676622168","0,4271135218","0,2760347718","0,574686191"
"8,119156917","-0,3051985273","0,448009351","0,3810390705","0,6626079481"
"8,129110917","-0,348782613","0,3921435177","0,5492517704","0,7596731908"
"8,139064917","-0,4511127972","0,3489665079","0,7790122622","0,9654742276"
"8,149019917","-0,4752665853","0,29691284","1,000766162","1,146982333"
"8,158973917","-0,4772187148","0,2081863857","1,202153624","1,310058247"
"8,168928917","-0,3921078863","0,1355484722","1,382336159","1,443251621"
"8,178882917","-0,339972065","0,1461844113","1,625997237","1,667578454"
"8,188836917","-0,4064259998","0,08144937515","1,846082926","1,892046052"
"8,198791917","-0,4099254487","0,006040831581","2,007445028","2,048880403"
"8,208745917","-0,4971942652","0,005194885656","2,097664642","2,155788968"
"8,218699917","-0,6331946906","0,03006864868","1,961567774","2,06145283"
"8,228654917","-0,8147282249","-0,01145732671","1,696317607","1,881862581"
"8,238608917","-0,9905051022","-0,08884632222","1,324656301","1,656414302"
"8,248562917","-1,126426992","-0,1838149716","0,9796612215","1,504114963"
"8,258517917","-1,129030538","-0,2848185322","0,8100025052","1,418427161"
"8,268471917","-0,8968958574","-0,343462268","0,7315428114","1,207287618"
"8,278426917","-0,5759239542","-0,4906880684","0,8487075645","1,136999433"
"8,288380917","-0,3071784311","-0,6621905214","1,290848869","1,482951678"
"8,298334917","-0,01525209658","-0,7705509026","1,874416194","2,026676439"
"8,308289917","0,2722002774","-0,8997778769","2,417446527","2,593788914"
"8,318243917","0,5020660922","-0,9129477069","2,718344244","2,911174902"
"8,328197917","0,5733486943","-0,7440655739","2,614179021","2,777821855"
"8,338152917","0,3584070934","-0,4769140017","1,890644556","1,982533593"
"8,348106917","0,06222972348","-0,242643589","0,7803419191","0,819562054"
"8,358060917","-0,1799275964","-0,07959960848","-0,2600818133","0,326117444"
"8,368015917","-0,2706376821","0,06368169677","-1,079773155","1,114993354"
"8,377969917","-0,4072551715","0,2011677169","-1,692158482","1,752063228"
"8,387924917","-0,6266244668","0,2685009633","-2,069588651","2,1789787"
"8,397878917","-0,7655317258","0,2503082289","-2,229976022","2,370967333"
"8,407832917","-0,79159357","0,2292992562","-2,170743143","2,321922549"
"8,417787917","-0,7376027195","0,1703348372","-1,945686151","2,08776587"
"8,427741917","-0,6694924513","0,1292657486","-1,577726133","1,718763953"
"8,437695917","-0,5110069966","0,08810244676","-1,185859188","1,294276712"
"8,447650917","-0,2778041027","0,03008198764","-0,8908572185","0,9336523064"
"8,457604917","-0,08887373105","0,04024273083","-0,7415678626","0,7479578279"
"8,467558917","-0,05943040553","0,05155044191","-0,8036787415","0,8075202416"
"8,477513917","-0,08367508125","0,02040977933","-0,9668768692","0,9707053922"
"8,487467917","-0,05054830223","0,06451386519","-1,069586136","1,072721619"
"8,497422917","-0,1108705178","0,1605770037","-1,050238284","1,068212385"
"8,507376917","-0,1540250524","0,1650837452","-1,092324788","1,115414632"
"8,517330917","-0,1355856385","0,1622103503","-1,223620507","1,241749898"
"8,527285917","-0,1956408922","0,231231834","-1,338987826","1,372818968"
"8,537239917","-0,2254518614","0,239919152","-1,396760656","1,435036609"
"8,547193917","-0,1815476041","0,2853016584","-1,442404606","1,481515311"
"8,557148917","-0,2637086219","0,3368234124","-1,522546543","1,58149936"
"8,567102917","-0,3609301304","0,3587084808","-1,456936691","1,543245559"
"8,577056917","-0,3493104704","0,4093778204","-1,392427869","1,492803863"
"8,587011917","-0,2974560829","0,4066546625","-1,412288522","1,499468907"
"8,596965917","-0,3095873377","0,3980837772","-1,281558813","1,377210225"
"8,606920917","-0,335325502","0,4237337216","-1,14401359","1,265211663"
"8,616874917","-0,2817026241","0,4629839972","-1,201443188","1,318019834"
"8,626828917","-0,2870770558","0,4644860738","-1,221820149","1,338284359"
"8,636783917","-0,3346884844","0,464709474","-1,122031567","1,259732557"
"8,646737917","-0,3756174956","0,4693743826","-0,8868226397","1,071380049"
"8,656691917","-0,3906980495","0,4862308821","-0,6308397245","0,887143841"
"8,666646917","-0,4076070642","0,4751552324","-0,403936767","0,7450375329"
"8,676600917","-0,5254549548","0,4497546718","-0,180163824","0,7147315425"
"8,686554917","-0,5538173494","0,455789583","0,01394970238","0,7173927758"
"8,696509917","-0,570492439","0,4639870139","0,2333483434","0,7714901305"
"8,706463917","-0,4701077331","0,5513045451","0,5141901112","0,8884421492"
"8,716418917","-0,2074616233","0,6617812894","0,3512223637","0,7774007647"
"8,726372917","-0,09805152074","0,6992382605","-0,002424840331","0,7060836534"
"8,736326917","-0,1744870546","0,7598637273","-0,1094107604","0,787279703"
"8,746281917","-0,1997221756","0,9313781306","0,1870530134","0,9707435292"
"8,756235917","-0,1545272186","0,9975615221","0,4245031786","1,095084746"
"8,766189917","-0,1736168428","0,9649037263","0,5270931619","1,113107906"
"8,776144917","-0,09938837696","0,8734920844","0,6705119133","1,105645828"
"8,786098917","0,07887999896","0,7161193914","0,8338474506","1,101975775"
"8,796053917","0,2681638714","0,5737000388","0,9884560186","1,173920311"
"8,806007917","0,4026417184","0,4178844228","1,151782785","1,289709784"
"8,815961917","0,4312030279","0,197030483","1,323844707","1,406172774"
"8,825916917","0,4913340761","0,04894525152","1,51841724","1,596682726"
"8,835870917","0,623791637","-0,00822041776","1,870407343","1,971701603"
"8,845824917","0,807285231","0,04292002469","2,124451321","2,273069508"
"8,855779917","0,8330757643","0,239326025","2,046919581","2,222874703"
"8,865733917","0,708921542","0,3892810133","1,549175933","1,747585629"
"8,875687917","0,5985672237","0,3673991609","0,9500152534","1,181437195"
"8,885642917","0,5504324694","0,4028713677","0,5820751154","0,8967121513"
"8,895596917","0,5133118594","0,1984353862","0,399864766","0,6802628158"
"8,905551917","0,3103413362","-0,124029567","0,5830744046","0,6720646098"
"8,915505917","0,1277987553","-0,5216073773","1,353197145","1,455867195"
"8,925459917","-0,02473445311","-0,9969387205","2,419411191","2,616877742"
"8,935414917","-0,1567157583","-1,307695136","3,361045046","3,609882297"
"8,945368917","-0,2334679189","-1,387130876","3,926442733","4,170802305"
"8,955322917","-0,1561804457","-1,292374408","3,722885953","3,943919847"
"8,965277917","0,01245734677","-1,135334348","2,660617023","2,892753396"
"8,975231917","0,1324259859","-1,025207304","1,283380221","1,647923374"
"8,985185917","0,2214978645","-0,7508631814","0,08895369172","0,7878893199"
"8,995140917","0,2705667481","-0,4899646947","-0,7635054463","0,9466849179"
"9,005094917","0,2007003417","-0,4389844294","-1,331394047","1,416191394"
"9,015049917","0,1720468654","-0,4381108189","-1,646270703","1,712234926"
"9,025003917","0,2487976373","-0,5260326232","-1,502505797","1,611252387"
"9,034957917","0,3017467332","-0,5860922257","-1,147520165","1,323388725"
"9,044912917","0,3213671384","-0,6467102373","-0,8973458737","1,151842257"
"9,054866917","0,3929949454","-0,6620441949","-0,7611794239","1,082654912"
"9,064820917","0,4519951786","-0,6256207922","-0,7239151186","1,058184349"
"9,074775917","0,5275556036","-0,5555905907","-0,8680869913","1,157830231"
"9,084729917","0,5219919048","-0,4493023165","-1,198658744","1,382436582"
"9,094683917","0,4508109713","-0,4384191133","-1,482943937","1,610765212"
"9,104638917","0,4547210044","-0,3839484988","-1,564456462","1,673831432"
"9,114592917","0,4052548025","-0,2777297334","-1,614107509","1,687219105"
"9,124547917","0,3186546151","-0,2745204709","-1,718119535","1,768851884"
"9,134501917","0,267710566","-0,2381127095","-1,851926048","1,886265278"
"9,144455917","0,2067186615","-0,1977538932","-1,951428702","1,972286284"
"9,154410917","0,1575172654","-0,1544156464","-1,964635223","1,976979373"
"9,164364917","0,130203642","-0,08048666764","-1,859536784","1,865826397"
"9,174318917","0,09745415457","-0,006159402151","-1,753287029","1,756004173"
"9,184273917","0,111445628","0,07463115625","-1,81010033","1,815062848"
"9,194227917","0,07573989797","0,1452288666","-1,705984808","1,713829665"
"9,204182917","0,0754239656","0,204366217","-1,455222872","1,471437369"
"9,214136917","0,07144394863","0,2047873627","-1,280215707","1,298458455"
"9,224090917","0,03192024261","0,1897542078","-1,125869095","1,142193845"
"9,234045917","0,1143481493","0,1737950367","-0,9354007226","0,9582560858"
"9,243999917","0,2761982746","0,1439698514","-0,7995430058","0,8580686588"
"9,253953917","0,3365131446","0,1764365163","-0,6794411963","0,7784672633"
"9,263908917","0,3427544991","0,2202858463","-0,5663045901","0,6976441711"
"9,273862917","0,3576605501","0,2011878167","-0,4816351533","0,6327479969"
"9,283816917","0,3497397656","0,2051989336","-0,4629661632","0,6154365721"
"9,293771917","0,2865817601","0,230077082","-0,4651734871","0,5928329798"
"9,303725917","0,261146774","0,2143386067","-0,5076096547","0,6097591635"
"9,313680917","0,2787368067","0,2645455412","-0,3463609886","0,5173436819"
"9,323634917","0,3201765722","0,3816153136","-0,08662825406","0,5056161977"
"9,333588917","0,3356181186","0,4129450605","0,109829421","0,543346709"
"9,343543917","0,2672040509","0,3976358074","0,2477202147","0,5393306453"
"9,353497917","0,1371958156","0,4022233866","0,3273019892","0,5364074353"
"9,363451917","0,005932000279","0,4035217609","0,4265842026","0,5872300078"
"9,373406917","-0,1202820865","0,3587818634","0,6258023483","0,7313144227"
"9,383360917","-0,2033240239","0,2827341095","0,8904274482","0,9561068328"
"9,393314917","-0,1919288604","0,2532322022","1,145971237","1,18920701"
"9,403269917","-0,1529164568","0,2095495909","1,372367241","1,396669724"
"9,413223917","-0,08567460973","0,1643097565","1,454013668","1,465774055"
"9,423178917","-0,07720716538","0,1482363454","1,368507494","1,378676076"
"9,433132917","-0,1562797387","0,1718541996","1,350512688","1,370343659"
"9,443086917","-0,1213383494","0,2058478649","1,405337352","1,425506721"
"9,453041917","-0,01428591728","0,2289164097","1,470426217","1,488206999"
"9,462995917","0,1588277909","0,2560373308","1,371994189","1,404688377"
"9,472949917","0,1513880312","0,2002328203","1,216465269","1,24209471"
"9,482904917","0,102061596","0,1360622232","1,119286299","1,132135733"
"9,492858917","0,045831865","0,1442714947","1,005896509","1,017222989"
"9,502812917","-0,111569991","0,1119082524","0,7877433246","0,8034369081"
"9,512767917","-0,2441221306","-0,01177088365","0,5754724395","0,6252221181"
"9,522721917","-0,3350773973","-0,1467081756","0,4265251458","0,5618930957"
"9,532676917","-0,3507339019","-0,2719582392","0,3675115371","0,5762293673"
"9,542631042","-0,2942220245","-0,3517551912","0,4486159265","0,6415251856"
"9,552585042","-0,1566481681","-0,4227827816","0,6231050277","0,7691188494"
"9,562540042","0,09014705362","-0,4895083561","0,6052610797","0,7836363292"
"9,572494042","0,2087996855","-0,5610213384","0,5403476304","0,8064228497"
"9,582448042","0,2988612784","-0,6966417313","0,6343217415","0,9884289743"
"9,592403042","0,3568822492","-0,7974456096","0,8534087259","1,221307043"
"9,602357042","0,1400550401","-0,8644618638","1,085135636","1,394427867"
"9,612312042","-0,0887236586","-1,106154184","1,402784457","1,788645633"
"9,622266042","-0,1054847388","-1,156332504","1,788508317","2,132368141"
"9,632220042","-0,01278890217","-0,9197763777","1,700779032","1,93359806"
"9,642175042","-0,05821681593","-0,7957506479","1,191328674","1,433831336"
"9,652129042","-0,224376266","-0,6554695125","0,5474262697","0,8829838681"
"9,662083042","-0,4697738936","-0,5022096414","-0,1014983082","0,695128723"
"9,672038042","-0,6807509726","-0,4795998472","-0,406070416","0,9264615928"
"9,681992042","-0,6439405574","-0,4847728058","-0,4004231751","0,9000015743"
"9,691947042","-0,5919039926","-0,4298523211","-0,2758920997","0,7818182686"
"9,701901042","-0,6982635297","-0,4873942953","-0,2417016757","0,8851806911"
"9,711855042","-0,7803729824","-0,5186923941","-0,3176874125","0,9894185583"
"9,721810042","-0,7763786763","-0,497638544","-0,4660406291","1,033248197"
"9,731764042","-0,9048153263","-0,5279123569","-0,584726243","1,199702884"
"9,741718042","-0,9457206197","-0,5422807199","-0,6805334562","1,285138769"
"9,751673042","-0,8418267073","-0,5409442656","-0,7349382895","1,241542264"
"9,761627042","-0,7543184473","-0,4485736073","-0,781154682","1,174911587"
"9,771581042","-0,7782502969","-0,1971169487","-0,8890200233","1,197866945"
"9,781536042","-0,6409885906","-0,1460400581","-1,054645915","1,24276791"
"9,791490042","-0,6990822861","-0,1917520552","-1,326947824","1,512043459"
"9,801445042","-0,7065769547","-0,1010394479","-1,68509563","1,830029302"
"9,811399042","-0,6110847603","-0,1086614397","-1,995008585","2,089327917"
"9,821353042","-0,2384327532","-0,2842622428","-2,26333965","2,293547813"
"9,831308042","-0,2013896919","-0,1830272055","-2,134648281","2,151924731"
"9,841262042","-0,1905366018","-0,2916603593","-1,773228958","1,807127803"
"9,851216042","0,8832642435","-0,8873594141","-1,20785349","1,739675978"
"9,861171042","1,27724503","-1,210016375","-1,138356408","2,095554773"
"9,871125042","0,7980376402","-0,8199443798","-1,348662044","1,768632854"
"9,881079042","0,3609987256","-0,6303342327","-1,274104198","1,466622934"
"9,891034042","0,1455612808","-0,6490390371","-1,064489118","1,255219837"
"9,900988042","0,1003124928","-0,697237051","-0,9868480343","1,212464904"
"9,910943042","0,2312360733","-0,6207023337","-0,960356639","1,166630354"
"9,920897042","0,4129131201","-0,5466497594","-0,9904972816","1,204328887"
"9,930851042","0,5183951363","-0,561353241","-1,044999763","1,294556095"
"9,940806042","0,5460953703","-0,5977751087","-1,055428857","1,330220022"
"9,950760042","0,5834986201","-0,5498011163","-0,9999954987","1,281695324"
"9,960714042","0,609317549","-0,4417635745","-0,928648358","1,195328701"
"9,970669042","0,545140995","-0,3752200677","-0,8554236764","1,081535237"
"9,980623042","0,1521674651","-0,2424931694","-0,5073868757","0,5825798798"
"9,990578042","-0,6077688043","0,1520708033","0,2859773773","0,6886882524"
"10,00053204","-0,9912905294","0,4457982264","0,4577662343","1,179382422"
"10,01048604","-0,8592380344","0,4093010757","0,01463967383","0,9518569695"
"10,02044104","-0,6530780013","0,2606761097","-0,2311281556","0,7401912822"
"10,03039504","-0,5866800901","0,2277640332","-0,2426723135","0,674507105"
"10,04034904","-0,428222227","0,2704345279","-0,3345016658","0,6069600267"
"10,05030404","-0,322306786","0,2010932015","-0,3701842993","0,5304305378"
"10,06025804","-0,3850819816","0,152521112","-0,3771266985","0,5601565574"
"10,07021204","-0,5222105907","0,1899598105","-0,3623355818","0,66338202"
"10,08016704","-0,6382544325","0,2710066049","-0,3832522416","0,792272416"
"10,09012104","-0,5055537006","0,2770387387","-0,5931626058","0,8271498557"
"10,10007604","-0,4235677703","0,1875003254","-1,008647624","1,109926149"
"10,11003004","-0,262806762","-0,03753868595","-1,034036819","1,067571398"
"10,11998404","0,003499741293","-0,2202520421","-0,7318041819","0,7642385563"
"10,12993904","0,1823546295","-0,2497537301","-0,4848394275","0,5750646981"
"10,13989304","0,232286891","-0,2509736055","-0,3864226019","0,5160110248"
"10,14984704","0,3270251601","-0,298898993","-0,4370735228","0,6223498435"
"10,15980204","0,3558969203","-0,3491363695","-0,5593692076","0,7493014966"
"10,16975604","0,2658572544","-0,3252697894","-0,5634394544","0,702811877"
"10,17971104","0,05251885045","-0,3382840835","-0,3071226633","0,4599116014"
"10,18966504","-0,08334259395","-0,3634266722","0,06991808116","0,3793592916"
"10,19961904","-0,05318879519","-0,3657008006","0,3533665377","0,5113062032"
"10,20957404","0,02628582906","-0,3909066854","0,4977360463","0,6334352006"
"10,21952804","0,08343571085","-0,4455313741","0,5474806488","0,7107705564"
"10,22948204","0,1734527553","-0,4791917481","0,3916728169","0,6427427053"
"10,23943704","0,2314345862","-0,4507723796","0,1732512456","0,5355125583"
"10,24939104","0,3065745964","-0,3410942553","-0,0424823606","0,4605844387"
"10,25934504","0,1910494026","-0,1739695761","-0,3711373955","0,4522258882"
"10,26930004","-0,01840813123","-0,03214959964","-0,7483716828","0,7492880832"
"10,27925404","0,08241909932","-0,04280322656","-0,9685339701","0,9729764002"
"10,28920904","0,2619175832","-0,1317398152","-1,035963476","1,076650604"
"10,29916304","0,3804664088","-0,1340547279","-0,9262884218","1,010314604"
"10,30911704","0,4284187666","-0,07229775175","-0,7064003688","0,8293196522"
"10,31907204","0,4200581618","-0,07274140924","-0,5389641792","0,6871845155"
"10,32902604","0,3338496647","-0,09053741008","-0,4944159973","0,6034068276"
"10,33898004","0,1906050873","-0,1414121331","-0,4238137919","0,4857425459"
"10,34893504","0,09509264689","-0,1507878511","-0,1988866085","0,2670870093"
"10,35888904","0,05093396265","-0,07546489611","-0,03732862473","0,09840043354"
"10,36884304","-0,07161439497","-0,04286359906","0,06489356875","0,1057217336"
"10,37879804","-0,1608785738","-0,01609870031","0,05730388284","0,1715366394"
"10,38875204","-0,225842163","-0,03930893049","0,01943556011","0,2300600261"
"10,39870704","-0,2193518267","-0,0210108","0,02342570007","0,2215974752"
"10,40866104","-0,1331889014","-0,01388289794","0,05421889186","0,1444704348"
"10,41861504","-0,03447971508","-0,04642469957","0,03387701333","0,06702056039"
"10,42857004","0,005190354064","-0,04025369436","-0,01366260409","0,04282483433"
"10,43852404","0,02200658083","-0,05045109227","-0,0122528404","0,05638913379"
"10,44847804","0,03567960028","-0,0631018357","0,02566693783","0,07690037218"
"10,45843304","0,05112439916","-0,07838748068","0,0268726337","0,09736754982"
"10,46838704","0,05267752927","-0,1248852704","0,1266144383","0,1854790254"
"10,47834204","0,08960960314","-0,1024442415","0,08793510675","0,1620410028"
"10,48829604","0,0574100098","-0,1023160413","-0,03337649167","0,121977341"
"10,49825004","-0,03382749472","-0,0862410222","-0,09466817558","0,1324533004"
"10,50820504","-0,08146658789","-0,04621215329","-0,1168560201","0,1497587977"
"10,51815904","-0,04115047451","-0,05506615341","-0,1976434904","0,2092572391"
"10,52811304","0,003354986161","-0,08234779984","-0,2672083998","0,2796296568"
"10,53806804","-0,02042947713","-0,09173711255","-0,2509812069","0,2680011708"
"10,54802254","-0,07258587331","-0,0734037526","-0,2777275407","0,2962927721"
"10,55797754","-0,09429198034","-0,07862823978","-0,2408976835","0,2703794955"
"10,56793154","-0,08993445251","-0,08687208295","-0,1566656184","0,2004472014"
"10,57788554","-0,04931633044","-0,06953348055","-0,05346927881","0,1006278746"
"10,58784054","-0,06334456824","-0,03430225208","-0,003151649237","0,07210486611"
"10,59779454","-0,0917579798","-0,0442379871","-0,07169797361","0,1245677558"
"10,60774854","-0,1016371065","-0,09074630186","-0,05281146705","0,1461302288"
"10,61770354","-0,1537252364","-0,08323160648","0,03803496838","0,1789011108"
"10,62765754","-0,1867290046","-0,05917703837","0,08875313222","0,2150506022"
"10,63761154","-0,1457202885","-0,08367438689","0,1091686857","0,2003836506"
"10,64756654","-0,1321520073","-0,1279595903","0,1526795715","0,2390582802"
"10,65752054","-0,09627491735","-0,141902276","0,2264685094","0,2840653119"
"10,66747554","-0,05466463242","-0,1035233451","0,2099793613","0,2404093118"
"10,67742954","-0,03014879208","-0,08030112818","0,1601815492","0,1817012646"
"10,68738354","-0,1157305042","-0,10812525","0,2057746285","0,2596686678"
"10,69733854","-0,1300787308","-0,1002731703","0,210796802","0,2672273875"
"10,70729254","-0,01465600949","-0,07085582837","0,1013556361","0,1245323733"
"10,71724654","0,0420924975","-0,0637391822","-0,09421560109","0,121289081"
"10,72720154","-0,02714774519","-0,09573207647","-0,2736374134","0,291168447"
"10,73715554","-0,04114371367","-0,05008593366","-0,3839539075","0,3893867088"
"10,74710954","-0,05364648599","0,01650274292","-0,415308432","0,4190839769"
"10,75706454","-0,04464535531","0,006704271287","-0,3566982812","0,3595439038"
"10,76701854","-0,03425847106","-0,02771770254","-0,292584731","0,2958846712"
"10,77697354","-0,0111148626","-0,02336971298","-0,1731185138","0,1750420049"
"10,78692754","-0,009072174355","-0,0291314131","-0,03597850263","0,04717410549"
"10,79688154","0,04456667371","-0,06911189631","0,05993045211","0,1017560893"
"10,80683654","0,02860319026","-0,09998358697","0,01512616217","0,105088824"
"10,81679054","-0,02572292492","-0,07472083792","-0,08585057437","0,1166841618"
"10,82674454","-0,07021490045","-0,03215325415","-0,1148890167","0,1384321139"
"10,83669954","-0,03944553606","-0,008021502793","-0,16146092","0,1664028951"
"10,84665354","-0,03872969069","-0,04763200343","-0,2061839336","0,2151292894"
"10,85660854","-0,0713987058","-0,04606772706","-0,2104868996","0,2269906288"
"10,86656254","-0,004962203018","-0,000652256906","-0,1177290094","0,1178353451"
"10,87651654","0,0829657409","-0,02384304509","0,01225751817","0,08718974546"
"10,88647154","0,1437395077","-0,03120527431","0,04819918334","0,1547836441"
"10,89642554","0,1475369819","-0,027978196","-0,004060306549","0,1502212587"
"10,90637954","0,09975134287","-0,04379798412","-0,03105514705","0,1132829024"
"10,91633454","0,03436046842","-0,02140928775","0,009977688789","0,04169596702"
"10,92628854","0,04403424818","-0,01308080614","0,009243278503","0,0468568106"
"10,93624354","0,1583435135","-0,01940603167","-0,02120083451","0,1609308476"
"10,94619754","0,1861442465","-0,00528222844","-0,05342717886","0,1937318918"
"10,95615154","0,1643310989","0,04952416241","-0,1483198875","0,2268394625"
"10,96610654","0,1337915666","0,05889081717","-0,2486277026","0,2884164457"
"10,97606054","0,09967277091","0,04091121376","-0,2685626149","0,2893687385"
"10,98601454","0,08204597387","0,04091589153","-0,1720385331","0,1949433479"
"10,99596954","0,05796227932","0,01793063298","-0,04577785134","0,07600490179"
"11,00592354","0,08333879326","-0,03809051692","0,04217304289","0,1008702508"
"11,01587754","0,04231333952","-0,06325430185","0,2095776576","0,2229670827"
"11,02583254","0,00786914628","-0,04938324451","0,403514598","0,4066013516"
"11,03578654","0,04275023617","-0,04430639952","0,4410385197","0,4453151868"
"11,04574154","0,05597784396","-0,04660274729","0,3348244321","0,3426554179"
"11,05569554","0,03855697855","-0,01802521169","0,2370145476","0,2408058235"
"11,06564954","0,04519861154","0,03692882136","0,123042959","0,1361845149"
"11,07560454","0,04151910491","0,08200032905","-0,02018517315","0,09410276963"
"11,08555854","-0,01966626931","0,1162911791","-0,1791300362","0,2144713742"
"11,09551254","-0,0420172146","0,1256429234","-0,3429216564","0,3676232486"
"11,10546754","-0,02616778839","0,1533065392","-0,3778377199","0,4085939191"
"11,11542154","-0,00142894987","0,1858619356","-0,2868491971","0,3418028129"
"11,12537554","-0,0001396022737","0,224708059","-0,1320669669","0,2606442307"
"11,13533054","-0,02407591045","0,2595830458","-0,02619552612","0,2620099478"
"11,14528454","0,007303830162","0,2376834691","-0,006472283006","0,2378837276"
"11,15523954","-0,007818787135","0,1935247117","0,008700072169","0,1938778965"
"11,16519354","-0,03327705245","0,1704913598","0,02661652565","0,1757358968"
"11,17514754","-0,06141305018","0,1610353889","0,04228881776","0,1774607092"
"11,18510254","-0,06691023689","0,09316748768","0,01505190253","0,1156880302"
"11,19505654","-0,02347836155","0,06799083889","0,06752072275","0,09865614848"
"11,20501054","-0,04885297514","0,1026734523","0,1268945199","0,1703838906"
"11,21496554","-0,08244117256","0,09052059934","0,1117432147","0,1657620942"
"11,22491954","-0,09044436626","0,07338548005","0,07820417047","0,140290785"
"11,23487454","-0,09747206166","0,07980323777","0,09586510062","0,1583018543"
"11,24482854","-0,09806686968","0,05154802993","0,09050378859","0,1430567932"
"11,25478254","-0,1344591359","0,03170009494","-0,008980153799","0,1384369835"
"11,26473754","-0,1816235813","-0,002804763168","-0,04449263334","0,1870149364"
"11,27469154","-0,2134865943","-0,03874350473","-0,007523027658","0,2171040789"
"11,28464554","-0,1894441226","-0,01261653721","0,09583352566","0,2126789065"
"11,29460054","-0,2134860462","-0,01332624301","0,0894547981","0,2318534916"
"11,30455454","-0,1964770805","-0,035772973","-0,01834856272","0,2005482948"
"11,31450954","-0,2081070463","-0,03334550142","-0,05044743776","0,2167150414"
"11,32446354","-0,2095846377","-0,00913729772","-0,06384165466","0,219282848"
"11,33441754","-0,1958596877","-0,0119606258","-0,03780751169","0,1998336352"
"11,34437254","-0,1922269588","-0,01627236262","-0,03535635889","0,1961276767"
"11,35432654","-0,1761126902","-0,03044031233","-0,1069970298","0,2083042406"
"11,36428054","-0,193405392","-0,03954296529","-0,1676116061","0,2589651371"
"11,37423554","-0,1332959054","-0,03693525329","-0,2447673708","0,2811460068"
"11,38418954","-0,04214515898","-0,02930156708","-0,2993417734","0,3037108716"
"11,39414454","-0,006164719462","-0,01218238145","-0,2920836246","0,2924025615"
"11,40409854","0,02344726168","0,04253118485","-0,3374270278","0,3409042019"
"11,41405254","-0,02190527782","0,04560477376","-0,3879908252","0,3912755001"
"11,42400754","-0,06651145678","0,03331845805","-0,3961944687","0,4031177875"
"11,43396154","-0,1020434149","0,0227216953","-0,3652486646","0,3799154129"
"11,44391554","-0,09131742865","-0,03190547839","-0,1952016932","0,2178543856"
"11,45387054","-0,04879611097","-0,0794570826","-0,06612089932","0,114308625"
"11,46382454","-0,02664462883","-0,07728162602","-0,03846298456","0,09034260981"
"11,47377854","-0,07721346941","-0,06555839717","-0,02813153923","0,1051247202"
"11,48373354","-0,07375527989","-0,09636942297","-0,03945584178","0,1276074859"
"11,49368754","-0,03561352674","-0,07935314834","-0,03679535866","0,09444121906"
"11,50364254","-0,03149493076","-0,05016881794","-0,1050849903","0,1206304113"
"11,51359654","-0,04183898415","-0,07050441071","-0,1331112796","0,1563329309"
"11,52355054","-0,09222593978","-0,03828873754","-0,05037902534","0,1118467594"
"11,53350554","-0,06900017794","-0,02162475765","0,008822863698","0,07284571108"
"11,54345879","-0,02318526987","-0,0620946528","0,05497902989","0,08611617951"
"11,55341279","-0,05166197754","-0,03843038633","0,1255794811","0,1411242736"
"11,56336779","0,007421176471","-0,006137383729","0,08725682974","0,08778664862"
"11,57332179","0,05239017516","-0,01180055827","0,04807288349","0,0720762496"
"11,58327679","0,02830483608","0,03790238276","0,02896652162","0,05546903406"
"11,59323079","0,01406375963","0,07288539693","-0,04249522448","0,08553311945"
"11,60318479","-0,006776009314","0,05452777103","-0,1042798287","0,1178705849"
"11,61313979","0,008868873976","0,04023132876","-0,07949757457","0,08953815444"
"11,62309379","0,02673862282","0,06009110436","-0,02999972463","0,07229023621"
"11,63304779","-0,01498491537","0,05574194536","-0,06501285195","0,08693896181"
"11,64300279","-0,01884579532","0,05462278828","-0,09079790354","0,1076246825"
"11,65295679","0,02957697093","0,05556185111","-0,04950603604","0,08007973597"
"11,66291079","0,005149350464","0,06394339621","0,0198501277","0,06715133133"
"11,67286579","-0,02084203474","0,07751858443","0,06611914515","0,1039964552"
"11,68281979","-0,02548655123","0,07793973014","0,1100650638","0,1372533574"
"11,69277479","-0,01775459524","0,05396687686","0,1473205984","0,1578955609"
"11,70272879","-0,06752817795","0,05111416653","0,1168191826","0,1442894115"
"11,71268279","-0,03941381492","0,0807781148","0,07974666595","0,1201585759"
"11,72263779","-0,01140013363","0,0858600761","0,08287317216","0,1198744275"
"11,73259179","0,002629383244","0,09611082986","0,0276076287","0,1000319271"
"11,74254579","-0,01272679377","0,1074474116","-0,03091422915","0,1125282502"
"11,75250079","-0,008060715683","0,1108266637","0,02758716345","0,1144926902"
"11,76245479","0,03404314734","0,1173452859","0,008647447228","0,122489307"
"11,77240979","0,008016569205","0,1089504384","-0,1333486766","0,1723842595"
"11,78236379","-0,07244539395","0,08581797615","-0,2304463702","0,2563563724"
"11,79231779","-0,06339346558","0,0894906123","-0,1940942305","0,2229346799"
"11,80227279","-0,009774936587","0,0786415422","-0,08418704152","0,115617903"
"11,81222679","0,01220803611","0,1017805825","0,0210108","0,1046411814"
"11,82218079","0,009214517511","0,1172577238","-0,04137782156","0,1246852246"
"11,83213579","0,02583372965","0,09100971892","-0,1191446203","0,1521367512"
"11,84208979","-0,03013435677","0,07067719594","-0,09242342949","0,1201891667"
"11,85204379","-0,02866805781","0,06593685821","-0,009858990312","0,07257221575"
"11,86199879","0,0316120578","0,08898994446","-0,01836844325","0,09620775499"
"11,87195279","-0,03192528583","0,05436945766","-0,00831181705","0,06359518932"
"11,88190779","-0,008497283421","0,03500640303","-0,01841171265","0,04045544761"
"11,89186179","0,027177164","0,05447558463","0,002262287736","0,06092048513"
"11,90181579","-0,01223595656","0,02531186566","0,08575584948","0,09024674452"
"11,91177079","0,008927236497","0,0182316184","0,09040789425","0,09265891649"
"11,92172479","0,01536388803","0,03275858715","0,04903182685","0,06093680441"
"11,93167879","-0,07083346277","0,04338604778","0,0436535579","0,09383688884"
"11,94163379","-0,0645368886","0,03507189184","-0,01324277401","0,07463523733"
"11,95158779","-0,03631701987","0,01896515161","0,02962842643","0,05056131486"
"11,96154279","-0,04639023755","0,02483078599","0,01835440993","0,05572707095"
"11,97149679","-0,01393486507","0,04368995681","-0,07391816139","0,08698785763"
"11,98145079","-0,01475592379","0,02612287447","-0,06768327534","0,07403490811"
"11,99140579","-0,0255184551","0,05847054854","-0,004095974565","0,06392787815"
"12,00135979","0,05773178939","0,08564285204","0,0009975349903","0,1032891702"
"12,01131379","0,05048676029","0,07264083713","-0,03865535796","0,09653932299"
"12,02126879","-0,01927757565","0,07408276051","-0,1800141352","0,195614338"
"12,03122279","-0,06185338207","0,08462572888","-0,3267839259","0,3431837541"
"12,04117779","-0,09343536325","0,07097935081","-0,302167148","0,3241499972"
"12,05113179","-0,126057893","0,06734998405","-0,1600570035","0,2145806541"
"12,06108579","-0,09836405441","0,08344561458","-0,03900443673","0,1347590586"
"12,07104079","-0,05070065875","0,08050417274","-0,01497471929","0,09631054378"
"12,08099479","-0,08063043606","0,07087176204","-0,09651414156","0,1443573808"
"12,09094879","-0,1400096054","0,004562728554","-0,07742356718","0,1600559803"
"12,10090379","-0,09507415507","0,00751221031","-0,07399359047","0,1207086563"
"12,11085779","-0,1228131999","-0,003824956119","-0,01253350675","0,1235103282"
"12,12081179","-0,1520692684","-0,005038253367","0,06238277435","0,1644446926"
"12,13076679","-0,08907275565","0,02904253542","0,05557076812","0,1089290362"
"12,14072079","-0,07637980264","0,009041111022","0,03901203811","0,08624126076"
"12,15067579","-0,09813378375","-0,004356175661","0,02773685217","0,1020712925"
"12,16062979","-0,1091252336","0,0219121483","-0,0316340214","0,1157115817"
"12,17058379","-0,1220508692","0,02299476027","-0,02746963441","0,1271996639"
"12,18053879","-0,0647906943","0,01943877608","0,04129245222","0,07925128828"
"12,19049279","-0,04081827957","0,01505731121","0,02954831958","0,05259237357"
"12,20044679","-0,07050667651","0,006972073764","0,02314912677","0,07453645628"
"12,21040179","-0,04730923712","0,005716676563","-0,04529370189","0,06574468601"
"12,22035579","-0,04235317368","-0,002059096992","-0,1206871158","0,1279195494"
"12,23031079","-0,09894157659","-0,02522518069","-0,09677843571","0,1406833712"
"12,24026479","-0,0787962376","-0,03014912099","-0,003262746334","0,08443022012"
"12,25021879","-0,04198593199","-0,02787660062","0,04192804456","0,06555825095"
"12,26017379","-0,08022379875","-0,04664850175","-0,0007519519329","0,09280358847"
"12,27012779","-0,1376853006","-0,04728365555","-0,03004123986","0,1486454243"
"12,28008179","-0,1278792276","-0,0403376019","-0,1441005367","0,1968379629"
"12,29003679","-0,136481432","-0,05749830276","-0,2567103088","0,2963670338"
"12,29999079","-0,1470692777","-0,06603918448","-0,2777357268","0,3211349877"
"12,30994579","-0,145189873","-0,06801598191","-0,3100392544","0,3490424219"
"12,31989979","-0,1432804647","-0,0384783335","-0,2904604375","0,326155085"
"12,32985379","-0,08515837368","-0,06226363733","-0,2575669259","0,2783333082"
"12,33980879","-0,02109551154","-0,1195160647","-0,3049276185","0,3281919604"
"12,34976279","-0,0904142531","-0,0751221031","-0,1869442552","0,2208307544"
"12,35971679","-0,1265494977","0,0150096564","-0,06384223938","0,142533844"
"12,36967179","-0,0926022812","-0,003459797502","-0,04785653651","0,1042947782"
"12,37962579","-0,09147227023","0,01488774195","-0,1144212395","0,147244834"
"12,38958079","-0,1663909999","0,03922663093","-0,1352004898","0,2179538158"
"12,39953479","-0,1399656782","0,03880972445","-0,06734121323","0,1600981723"
"12,40948879","-0,03564842731","0,01667523578","-0,06692196786","0,07763648395"
"12,41944379","0,008371129744","0,05264467523","-0,02285968959","0,05800088836"
"12,42939779","-0,009952509217","0,07922260925","0,03590599716","0,08754721519"
"12,43935179","0,014668581","0,02822977245","0,1001008236","0,1050345763"
"12,44930679","0,03807173274","0,006109463274","0,1410588151","0,1462339622"
"12,45926079","-0,02829047386","0,004034871161","0,1504769254","0,1531663676"
"12,46921479","-0,06377576385","0,00456506744","0,09199599802","0,1120332609"
"12,47916979","0,01146766897","-0,03319040403","0,07851758122","0,08601233"
"12,48912379","-0,0626876701","-0,03300460875","0,14558456","0,1619071101"
"12,49907879","-0,119089291","0,01945295557","0,1961372477","0,2302835136"
"12,50903279","-0,01880585153","0,02637518182","0,13867549","0,1424085735"
"12,51898679","0,006669005267","-0,0122961098","0,005470070243","0,01501970758"
"12,52894179","-0,05231361318","0,01310960367","-0,119346934","0,1309666617"
"12,53889579","-0,02717329022","0,01738903463","-0,09013892233","0,0957381405"
"12,54885042","0,05849792082","0,0522467722","-0,08359062552","0,1146260207"
"12,55880542","0,05573745031","0,02727521449","-0,1383293349","0,1516100444"
"12,56875942","0,0007838192582","-0,02126062229","-0,1186347431","0,1205273027"
"12,57871442","0,01387580819","-0,0244907704","-0,1153269732","0,1187124536"
"12,58866842","0,05239945762","-0,02099398926","-0,1277710176","0,1396849443"
"12,59862242","0,0786452698","0,01128936544","-0,05687001944","0,09770735563"
"12,60857742","0,09366552427","0,01662275702","-0,03821681678","0,1025186401"
"12,61853142","0,1073948963","-0,0270604755","-0,1133143616","0,1584489748"
"12,62848542","0,09228185378","-0,05404844552","-0,09100314081","0,1404234547"
"12,63844042","0,04986289892","-0,04819918334","-0,02887413561","0,07512113998"
"12,64839442","-0,0224041184","-0,04131408691","0,007034785151","0,04752143202"
"12,65834842","0,02673420087","-0,03174117163","0,04750453413","0,06307852435"
"12,66830342","0,02432145696","-0,02091768309","0,06056604445","0,06853705914"
"12,67825742","-0,04317792345","0,000946225673","0,07258148789","0,08445887047"
"12,68821242","0,004890355356","0,008192095309","0,04481715381","0,04582142814"
"12,69816642","0,0220951296","0,01238264859","-0,08302578449","0,08680325817"
"12,70812042","0,01675088413","-0,03064818084","-0,1094879436","0,114923944"
"12,71807542","0,03144332908","-0,04349480599","-0,01021742463","0,05463402656"
"12,72802942","0,01510182314","-0,009979735315","-0,006061808467","0,01908941332"
"12,73798342","0,02139572952","-0,02657924965","-0,01312758386","0,03655909205"
"12,74793842","0,003023156673","-0,01155146688","0,003680237532","0,01249479939"
"12,75789242","-0,05909342319","0,01458412528","0,0257827127","0,06610202454"
"12,76784742","-0,0250316013","0,02707392409","0,05371953964","0,06515648371"
"12,77780142","-0,04567991048","0,02943181381","0,007753992677","0,0548908944"
"12,78775542","-0,05321105115","0,02031015739","0,0412024051","0,07029620647"
"12,79771042","-0,009912346154","0,01205345035","0,003291982412","0,01594921377"
"12,80766442","-0,006732264832","-0,01205871284","-0,02761113703","0,03087249315"
"12,81761842","-0,1174066451","-0,01215899259","-0,036042822","0,123414936"
"12,82757342","-0,1210054601","0,006677958816","-0,01079162121","0,1216691235"
"12,83752742","-0,07849400964","-0,02199664056","0,004439206123","0,08163864462"
"12,84748242","-0,06570289649","-0,04902978033","0,05084563315","0,09646796555"
"12,85743642","0,02545450117","-0,04248674601","0,06911408901","0,08502830421"
"12,86739042","0,05178517107","-0,04395922109","0,02376659274","0,07196504702"
"12,87734542","-0,05065559864","-0,03073369637","0,03038622558","0,06658732966"
"12,88729942","-0,07479126032","-0,01670301005","-0,01643476903","0,07837617494"
"12,89725342","-0,007687553689","-0,05674532756","0,002519565225","0,05731909709"
"12,90720842","0,01397528395","-0,06012545675","0,0402943325","0,0737157537"
"12,91716242","-0,01981500786","-0,06550372571","-0,05994857848","0,0909791442"
"12,92711742","-0,01041363526","-0,06774876416","-0,1374393886","0,1535836072"
"12,93707142","0,007806617618","-0,03797021046","-0,07245869637","0,08217629123"
"12,94702542","0,02145990271","-0,03584591702","-0,03512305498","0,05458100569"
"12,95698042","0,01491493151","-0,01166197926","-0,0209809792","0,02826054547"
"12,96693442","0,01313595269","0,02138633743","-0,04350854695","0,05022870035"
"12,97688842","0,02118044235","0,0179625003","-0,09407819152","0,09809163407"
"12,98684342","0,03199285772","-0,02650615945","-0,155383324","0,1608418379"
"12,99679742","0,0434049416","-0,02505195692","-0,1984100604","0,2046414952"
"13,00675142","0,06688374169","-0,01733392462","-0,2898213369","0,297943463"
"13,01670642","-0,002614765204","-0,02571546972","-0,2644303876","0,2656907079"
"13,02666042","-0,08824263375","0,02032682195","-0,2677925366","0,2826884942"
"13,03661542","-0,108920983","-0,0008933083713","-0,3072589034","0,325994804"
"13,04656942","-0,120084816","-0,01045730665","-0,2641152227","0,2903214928"
"13,05652342","-0,1514128088","-0,001141815037","-0,1097042906","0,1869817472"
"13,06647842","-0,09415263388","0,01658606574","-0,01101673901","0,09623504862"
"13,07643242","0,001369308271","0,04939508513","0,07398949742","0,08897300247"
"13,08638642","-0,03417913165","0,03068136379","0,2471395862","0,2513713074"
"13,09634142","-0,01740178887","0,05543379709","0,3436402792","0,3485173878"
"13,10629542","0,02264480442","0,05028605461","0,3202362138","0,3249503148"
"13,11625042","-0,002580266632","-0,04394679576","0,3101883584","0,3132966587"
"13,12620442","-0,05783470038","-0,0525620833","0,3797444969","0,3877028606"
"13,13615842","-0,026953508","-0,02389859363","0,3057205009","0,3078354415"
"13,14611342","-0,02069366165","-0,04750906572","0,1254993743","0,1357771406"
"13,15606742","-0,02446003597","-0,05571504816","0,02530441046","0,06589972034"
"13,16602142","-0,01825493418","0,0007494668663","-0,04993639112","0,05317374803"
"13,17597642","-0,01650562998","0,01066663697","-0,2027609736","0,2037111322"
"13,18593042","-0,1039284841","-0,06186310306","-0,2247634614","0,2552386861"
"13,19588542","-0,1300566576","-0,04111835137","-0,06572855115","0,1514123358"
"13,20583942","-0,05860887174","0,009484329969","-0,004429850578","0,05953634132"
"13,21579342","-0,05814990185","-0,0511621137","-0,02655512989","0,08187886105"
"13,22574842","-0,08702677835","-0,08092546463","-0,07859768808","0,1424787266"
"13,23570242","-0,02608362503","-0,03717060372","-0,1971587563","0,2023204993"
"13,24565642","-0,02411833931","-0,01455108851","-0,2813417047","0,2827482684"
"13,25561142","-0,05080097504","-0,02400983691","-0,2955241263","0,3008184179"
"13,26556542","-0,04702707242","-0,002353065759","-0,2046373451","0,2099845839"
"13,27552042","0,01776172154","0,02885790959","-0,2281291187","0,2306320717"
"13,28547442","0,03842936307","-0,003583612293","-0,2498977178","0,2528606881"
"13,29542842","-0,01797561999","-0,02012363121","-0,1659539205","0,1681332423"
"13,30538342","-0,006427990347","0,004021714926","-0,1012579876","0,1015414856"
"13,31533742","0,03990322687","-0,005560702085","-0,0616004169","0,07360570823"
"13,32529142","-0,01116120178","-0,06202200115","-0,04925343633","0,07998251085"
"13,33524642","-0,0483780716","-0,09559700578","0,007048233747","0,107372729"
"13,34520042","0,02804664496","-0,04528332308","0,008112426996","0,05387954264"
"13,35515442","0,03816616528","-0,0241694659","-0,1043388855","0,1136988227"
"13,36510942","0,01605809871","-0,07169490382","-0,1055901897","0,1286363476"
"13,37506342","0,01112578958","-0,05571870267","-0,08672531784","0,1036804599"
"13,38501842","0,004916704372","-0,01983331695","-0,1416616631","0,1431277794"
"13,39497242","-0,01291364886","0,0114842239","-0,2120720798","0,2127750379"
"13,40492642","-0,04408833493","0,03532990023","-0,268083728","0,2739723861"
"13,41488142","-0,1508723433","0,006779554188","-0,2435593361","0,2865825824"
"13,42483542","-0,1076251304","0,001730044931","-0,07111792982","0,1290113239"
"13,43478942","-0,05416634001","0,03314450338","0,01161315501","0,06455552543"
"13,44474442","-0,03992427684","0,007391172945","0,00354516685","0,04075715308"
"13,45469842","-0,06578139536","-0,09072466716","-0,0392775017","0,1187471235"
"13,46465342","-0,05676140741","-0,07569132954","0,01556411862","0,09588157553"
"13,47460742","-0,0258840888","-0,0358780767","0,1482356876","0,1546966112"
"13,48456142","0,005817906484","-0,004003588557","0,2042449969","0,2043670607"
"13,49451642","0,02898567125","0,05469134688","0,2009822506","0,2102978307"
"13,50447042","0,05496346168","0,01638799131","0,1976282877","0,2057826243"
"13,51442442","0,1775706935","-0,0229304409","0,1331750143","0,2231428706"
"13,52437942","0,5621473294","-0,2416538747","-0,07009115875","0,615888777"
"13,53433342","0,564502661","-0,2865254076","0,04185203075","0,6344380631"
"13,54428867","0,1612443903","-0,1139936619","0,2576324147","0,3246055598"
"13,55424267","-0,08083391916","0,03795734659","0,06463336766","0,1102377198"
"13,56419667","-0,144212584","0,04201356009","-0,1584203678","0,2183103789"
"13,57415167","-0,1004065599","-0,004298580587","-0,1795738399","0,2057831846"
"13,58410567","-0,04430866532","0,0307461217","-0,1616129476","0,1703740786"
"13,59405967","-0,1083974014","0,09043479145","-0,06109580219","0,1538217968"
"13,60401467","-0,1824491717","0,1644850999","-0,04234378159","0,2492710255"
"13,61396867","-0,1888551619","0,1660875294","-0,1084290129","0,2738762319"
"13,62392267","-0,2077801869","0,1496993919","-0,0853442055","0,2699373028"
"13,63387767","-0,1909459434","0,1745196529","-0,051074844","0,2636780276"
"13,64383167","-0,1526501893","0,1619361524","-0,08126460314","0,2369163005"
"13,65378667","-0,08486294311","0,1046534657","-0,1035559434","0,1699349888"
"13,66374067","-0,07818195105","0,08052376091","-0,09429570794","0,1465884514"
"13,67369467","-0,11135083","0,1168785319","-0,1228347981","0,202849664"
"13,68364967","-0,1892699487","0,07950736865","-0,1243018645","0,2399906012"
"13,69360367","-0,2042912995","0,02244234458","0,04535041988","0,2104643782"
"13,70355767","-0,07235922061","0,007674178183","0,2483049363","0,2587471569"
"13,71351267","0,06628641207","-0,0647545512","0,3056444871","0,3193831443"
"13,72346667","0,1343967534","-0,1354880266","0,2432517725","0,3091778089"
"13,73342167","0,113211012","-0,07760351524","0,02886711895","0,1402581526"
"13,74337567","-0,01808423202","-0,01291050598","-0,1907238954","0,1920138664"
"13,75332967","-0,1873948928","0,0006430475414","-0,3098012727","0,3620691757"
"13,76328467","-0,2122927756","0,01068447098","-0,228697468","0,3122257395"
"13,77323867","-0,08996781819","0,06399485171","-0,05562924027","0,1236291298"
"13,78319267","-0,1117530819","0,1105566685","0,02303276718","0,1588774264"
"13,79314767","-0,1344718536","0,1081995097","0,0428536588","0,1778377052"
"13,80310167","-0,02089900855","0,05362759218","0,1051095486","0,1198361565"
"13,81305667","0,06315793242","-0,01548547357","0,07198741078","0,09700985327"
"13,82301067","0,1057239448","-0,01654586613","0,03446875155","0,112425144"
"13,83296467","0,1123326141","0,05500534236","-0,05014689088","0,1347550167"
"13,84291967","0,0543971223","0,00412798807","-0,1279762548","0,1391186867"
"13,85287367","0,04637594841","-0,001166080981","-0,07775627375","0,0905435058"
"13,86282767","0,1003894568","0,04315829873","-0,05997664511","0,1246510319"
"13,87278267","0,1753570472","0,07289972261","-0,1900070268","0,2686394122"
"13,88273667","0,1968724254","-0,01619678736","-0,1881990677","0,2728369053"
"13,89269167","0,1428197772","-0,03154338956","-0,1288422275","0,1949174024"
"13,90264567","-0,02443471022","0,0727618745","-0,3486343861","0,3569835859"
"13,91259967","-0,4119228941","0,1147447367","-0,7693941772","0,8802353238"
"13,92255467","-0,4114478809","0,1470412476","0,1914816946","0,4770489771"
"13,93250867","0,008943901062","0,106452654","0,640931434","0,6497732405"
"13,94246267","0,1711269522","0,02346999273","0,3999419492","0,4356476065"