Time (s),Linear Acceleration x (m/s^2),Linear Acceleration y (m/s^2),Linear Acceleration z (m/s^2),Absolute acceleration (m/s^2)
"0,003377166577","0,2992553625","0,1525683282","-0,01041681468","0,3360645426"
"0,0133311667","0,3263647171","0,02215714663","0,02914369226","0,3284116662"
"0,02328516659","0,259757165","-0,1214747357","-0,03192755163","0,2885294867"
"0,03324016649","0,208266456","-0,01290743619","0,05788451135","0,2165459195"
"0,04319416662","0,2095506142","0,1613929461","0,09879514039","0,2823466358"
"0,05314916652","0,1669101778","0,14192011","-0,09979969203","0,2407494623"
"0,06310316664","0,1221081445","0,1072205396","-0,2637415856","0,3097842266"
"0,07305716653","0,1048196546","0,1741188262","-0,277428748","0,3439058532"
"0,08301216667","0,1338295826","0,2486589852","-0,1634308469","0,3262687387"
"0,09296616656","0,1510277879","0,3017686602","-0,1175126624","0,3573275008"
"0,1029211667","0,1708404751","0,3473529688","-0,1380866754","0,410984772"
"0,1128751666","0,1765974975","0,3394134732","-0,1242562562","0,4022782608"
"0,1228291667","0,1202032221","0,2383373339","-0,1742628139","0,3187805322"
"0,1327841666","0,1394275333","0,198957506","-0,1790142614","0,3017784485"
"0,1427381665","0,2249534959","0,2302671531","-0,1379948741","0,3502422339"
"0,1526921666","0,2133198391","0,2039608222","-0,03809577942","0,2975847092"
"0,1626471665","0,1152598947","0,1533572638","0,1112409389","0,2217607724"
"0,1726011666","0,07621506647","0,05118111715","0,2783081692","0,2930591752"
"0,1825561665","0,08108741423","-0,02412926629","0,3771869248","0,386558361"
"0,1925101667","0,02609352419","-0,03882887408","0,3396273351","0,3428341876"
"0,2024641666","-0,02887970874","-0,04787027746","0,2443241519","0,2506389679"
"0,2124191667","-0,03865421592","-0,05964744687","0,1851129073","0,198289573"
"0,2223731666","-0,04024525244","-0,05032625422","0,1677121782","0,1796657645"
"0,2323281665","-0,03273098647","-0,06764819205","0,1205766034","0,142078544"
"0,2422821666","0,01911454797","-0,08983793691","0,1077618456","0,1415939131"
"0,2522361665","0,1305057603","-0,07075233266","0,03008217037","0,1514680924"
"0,2621911666","0,1960815164","-0,04859650165","-0,08878529191","0,2206635654"
"0,2721451665","0,3450178832","0,2579411477","-0,09960790336","0,4421455753"
"0,2820991667","0,4943559537","0,4423523891","-0,1265559661","0,6753368475"
"0,2920541666","0,3724527267","0,2758381592","-0,1365085119","0,483158667"
"0,3020081667","0,2644865209","0,226712923","-0,07718266189","0,3568039132"
"0,3119631666","0,1037924998","0,2022300464","0,007613659501","0,2274375573"
"0,3219171667","0,05877014525","0,2067306483","0,05800145566","0,2226110055"
"0,3318711666","0,05284801215","0,2372038512","0,08235276997","0,2565941506"
"0,3418261665","0,05358885437","0,274710816","0,1191995841","0,3042142972"
"0,3517801666","0,1476678499","0,291755742","0,1277417815","0,351062914"
"0,3617351665","0,1645915558","0,2501487096","0,05663145304","0,3047488779"
"0,3716891666","0,09924281783","0,1797265984","-0,01913325906","0,2061961898"
"0,3816431665","0,06999223117","0,1174155986","-0,009428050518","0,137019062"
"0,3915981667","0,002955584787","0,06720190331","0,08427884281","0,1078320668"
"0,4015521666","-0,13876667","0,008702849597","0,08200603008","0,1614215515"
"0,4115071667","-0,2855282015","-0,05942539886","0,08370172262","0,3034200228"
"0,4214611666","-0,326696108","-0,1199826725","0,1084173185","0,3645277817"
"0,4314151667","-0,3101551024","-0,157277091","0,127971577","0,3705522843"
"0,4413701666","-0,2685615917","-0,1863517861","0,06517598927","0,3333170057"
"0,4513241665","-0,1847406224","-0,1635713263","0,004362607598","0,2467867676"
"0,4612781666","-0,08891206685","-0,0923756285","0,0218703407","0,1300650767"
"0,4712331665","-0,07294357672","-0,04396170616","0,1355817282","0,1601118422"
"0,4811871666","-0,1064318233","-0,07187952965","0,2412099248","0,2732702465"
"0,4911421665","-0,185497581","-0,1800461487","0,220879156","0,340019955"
"0,5010961667","-0,261675472","-0,2497508065","0,1254303771","0,3828606764"
"0,5110501666","-0,2658569621","-0,2587901634","0,1002353096","0,3843167837"
"0,5210051667","-0,2548078806","-0,2761096162","0,1398057568","0,400885552"
"0,5309593333","-0,2017545216","-0,2661480072","0,1450933939","0,3641314895"
"0,5409143332","-0,1225914077","-0,2652722405","0,09728831291","0,3079984264"
"0,5508683333","-0,09201956961","-0,2493910566","0,00793467164","0,2659444666"
"0,5608223332","-0,1183520302","-0,2261621153","-0,0351370883","0,2576647443"
"0,5707773333","-0,1197109962","-0,2647433598","-0,08985006988","0,3041262965"
"0,5807313332","-0,06443785138","-0,3241002001","-0,1458792597","0,3612117589"
"0,5906853334","-0,01248230707","-0,2907295556","-0,08630899608","0,303527141"
"0,6006403333","0,02975849044","-0,2521779858","-0,04720515668","0,2582782048"
"0,6105943331","0,03125018824","-0,24733386","-0,1127734941","0,27362104"
"0,6205493333","-0,008954754956","-0,2492157863","-0,2806663513","0,3754494594"
"0,6305033332","-0,06369916532","-0,2423942783","-0,4653758007","0,5285709089"
"0,6404573333","-0,1005329694","-0,2260214898","-0,5375971001","0,5917797174"
"0,6504123332","-0,08617067289","-0,2079554938","-0,4469132173","0,5004021343"
"0,6603663333","-0,05854857232","-0,1939028804","-0,2588258314","0,3286595098"
"0,6703213332","-0,05265878163","-0,1561968179","-0,08902736664","0,1873399723"
"0,6802753333","-0,03265585888","-0,1055204616","-0,05431361675","0,1230891624"
"0,6902293332","-0,01265063379","-0,0638182658","-0,1389432925","0,1534211462"
"0,7001843334","-0,04301339742","-0,04367168427","-0,193406598","0,202887852"
"0,7101383333","-0,04124242198","-0,02314006358","-0,1583578026","0,1652682473"
"0,7200933332","0,0107618735","-0,03897607774","-0,05790614605","0,07062630039"
"0,7300473333","0,05860700794","-0,06201644629","0,05927380979","0,103895166"
"0,7400013332","0,03074772969","-0,1077083436","0,2760283399","0,2978895006"
"0,7499563333","-0,04826061565","-0,2157404767","0,4280056608","0,4817280207"
"0,7599103332","-0,06014727417","-0,3122543259","0,4224098754","0,5287254122"
"0,7698643333","-0,04420414634","-0,365082019","0,3146813589","0,4840074842"
"0,7798193332","-0,0217354162","-0,3290146387","0,1642172974","0,3683617536"
"0,7897733334","0,06067133088","-0,2795414932","0,05541757107","0,2913684334"
"0,7997283333","0,1842625029","-0,2125885351","0,03510434389","0,2835116756"
"0,8096823334","0,2216535466","-0,1656589285","0,04827051938","0,2808971669"
"0,8196363333","0,2909898664","-0,1634597906","-0,05127715766","0,3376737366"
"0,8295913332","0,3416785018","-0,1848671781","-0,2372420043","0,4551964858"
"0,8395453333","0,1871037746","-0,1195849156","-0,2010173339","0,2995268653"
"0,8495003332","0,1839266169","-0,09871795714","-0,1286252958","0,2451911543"
"0,8594543333","0,2456972974","-0,06712983638","-0,02967695832","0,2564260102"
"0,8694083332","0,3056903147","0,03588757843","-0,07039053619","0,3157361468"
"0,8793633333","0,2884010482","0,1270952256","-0,221593101","0,3852685601"
"0,8893173332","0,247538074","0,1468278243","-0,3450073582","0,449292316"
"0,8992713334","0,2081746182","0,1390535125","-0,3850982076","0,4593181691"
"0,9092263333","0,2728912356","0,139689251","-0,3374416459","0,4559052288"
"0,9191803331","0,2316256806","0,1529934208","-0,1678285378","0,3243822757"
"0,9291353333","0,1247393093","0,142355289","0,06563674986","0,20033249"
"0,9390893332","0,09667954467","0,120046261","0,1774010146","0,235008849"
"0,9490433333","0,07557475068","-0,01407994911","0,1615398574","0,1788991711"
"0,9589983332","-0,0001296620071","-0,1115571271","0,1265050954","0,1686669753"
"0,9689523333","-0,08556099102","-0,1201757768","0,144150238","0,2062575856"
"0,9789073332","-0,05357986428","-0,118184946","0,184502458","0,2255651576"
"0,9888613333","0,06084378719","-0,1114933924","0,2096741366","0,2451448277"
"0,9988153332","0,09328231238","-0,1220369455","0,2158973283","0,2649646433"
"1,008770333","0,04817301705","-0,1103635642","0,273342129","0,2986916058"
"1,018724333","-0,02617469542","-0,1676912744","0,2925625116","0,3382281794"
"1,028678333","-0,07925045662","-0,2342045219","0,2680679405","0,3646817978"
"1,038633333","-0,06870799989","-0,242389162","0,1908367467","0,316056892"
"1,048587333","-0,06251638323","-0,1961800785","0,08139850438","0,2214060476"
"1,058542333","-0,02739040464","-0,1654883359","-0,03053299069","0,1704960032"
"1,068496333","0,01464610577","-0,1269689257","-0,0816376555","0,1516585748"
"1,078450333","0,02651456483","-0,085180922","-0,1279411715","0,1559735715"
"1,088405333","0,03181009568","-0,049026272","-0,1817741472","0,1909379431"
"1,098359333","0,0001021800935","0,006848989874","-0,1695441109","0,1696824229"
"1,108314333","0,02474841334","0,06176823199","-0,08274804175","0,1061839765"
"1,118268333","0,1586827616","0,0898499237","-0,01773460507","0,1832150208"
"1,128222333","0,239377042","0,03003743917","-0,08648909032","0,256288858"
"1,138177333","0,07134480178","-0,05341256082","-0,188269819","0,208299081"
"1,148131333","-0,1028917728","-0,141430698","-0,2424623984","0,2989604888"
"1,158085333","-0,1525194309","-0,2824365959","-0,1909922826","0,3735112575"
"1,168040333","-0,1972072881","-0,3682922865","-0,0722183758","0,4239639332"
"1,177994333","-0,2286513481","-0,3867469762","0,010338462","0,44940132"
"1,187949333","-0,2719252025","-0,4467578276","-0,05200162768","0,5255854274"
"1,197903333","0,1561594688","0,1782754657","0,06214713156","0,2450105861"
"1,207857333","0,2572494221","0,4385712871","0,2936629575","0,587162645"
"1,217812333","0,09814778052","0,03971165746","0,2100226307","0,2352009948"
"1,227766333","0,2035445005","-0,09541588828","0,04441954315","0,2291454805"
"1,237721333","0,2976128248","-0,02002481326","-0,01634062886","0,2987329958"
"1,247675333","0,2757925509","-0,08334694281","-0,11814767","0,3113954334"
"1,257629333","0,1539973146","-0,04165249452","-0,1510049289","0,2196647259"
"1,267584333","0,196022021","-0,008445133567","-0,005257816315","0,1962742918"
"1,277538333","0,1585652326","-0,02251397297","0,3083815688","0,3474895739"
"1,287492333","0,2378372874","-0,01191560224","0,6156258541","0,6600785931"
"1,297447333","0,2162705999","0,1236988704","0,4570253921","0,5205253038"
"1,307401333","0,4180546499","-0,05326404154","0,1497612262","0,4472529187"
"1,317356333","0,475234791","0,007246015817","-0,1490396798","0,4981098649"
"1,327310333","0,02466107056","0,1879325809","-0,5742562187","0,604728888"
"1,337264333","-0,180744087","0,04303609192","-0,8244644237","0,8451402937"
"1,347219333","0,03217441376","-0,01132225603","-0,6886476374","0,6894918091"
"1,357173333","0,4091464534","0,06163111478","-0,5759951806","0,7092035411"
"1,367128333","0,9032822594","-0,01150293499","-0,5088937032","1,036833622"
"1,377082333","1,187929395","-0,1209420544","-0,1586139107","1,204558675"
"1,387036333","1,060563517","-0,1243876724","0,3452506024","1,122258992"
"1,396991333","0,9940059764","-0,1749063","0,8178547311","1,299048289"
"1,406945333","0,8986989925","-0,2190498546","1,13307111","1,462700536"
"1,416899333","0,7180695109","-0,1505998631","1,064086829","1,292511092"
"1,426854333","0,5700039407","-0,1345358075","0,6727285928","0,8919462626"
"1,436808333","0,3814179701","0,05864991188","0,1736289757","0,4231624998"
"1,446763333","0,0528009512","0,3409936832","-0,1836633825","0,3908924027"
"1,456717333","-0,3309825191","0,4038081282","-0,4758364695","0,7064211054"
"1,466671333","-0,7178359146","0,3587848601","-0,7636071879","1,107750384"
"1,476626333","-1,04656594","0,3102817677","-0,8176822382","1,363883897"
"1,486580333","-1,362734538","0,1451964511","-0,7161213648","1,546272046"
"1,496535333","-1,701741338","-0,00627230823","-0,3893543959","1,745726143"
"1,506489333","-1,725344939","-0,02712464869","0,09498275578","1,728170313"
"1,516443333","-1,117439968","0,2193511324","0,4732648641","1,233193672"
"1,526399042","-0,2016194692","0,5438471889","0,7169674569","0,9222052427"
"1,536353042","-0,02251157926","0,2583605392","0,3592225242","0,4430550319"
"1,546307042","-0,04042498123","-0,04982836381","-0,2799430507","0,2872022921"
"1,556262042","0,1923722986","0,1626663235","-0,8685997921","0,9043965021"
"1,566216042","0,3614156686","0,3418918155","-0,8890662163","1,018798329"
"1,576171042","0,09123335665","0,1795501587","-0,1464136952","0,2489954919"
"1,586125042","0,03660722449","-0,1058487097","0,2492457533","0,2732535156"
"1,596079041","0,208515858","-0,2665788739","0,4337704307","0,5501817387"
"1,606034042","0,2573287249","-0,3206022495","0,7607619327","0,8647326716"
"1,615988042","0,2321969901","-0,2974251292","1,043101172","1,109250741"
"1,625943042","0,6822399661","-0,1827007847","1,273165135","1,455946568"
"1,635897042","0,929751289","-0,07310751803","1,312471288","1,610081691"
"1,645851042","0,8045231525","-0,07978087217","1,287443451","1,520241142"
"1,655806042","0,4055312296","-0,09349968262","1,137464123","1,211207002"
"1,665760042","-0,604878891","-0,01975642607","0,7882923782","0,9938177211"
"1,675714042","-0,235893344","-0,5572226948","0,1693833125","0,6283577865"
"1,685669042","-0,09112688251","-0,274350189","-0,1077817261","0,3085272036"
"1,695623042","-0,1778236952","0,4783273834","-0,8362214202","0,9796349401"
"1,705578041","-1,222317601","0,6916501826","-1,460580091","2,026261211"
"1,715532042","-1,87357361","0,50266598","-1,735431386","2,602820251"
"1,725486042","-0,879895955","0,4739638987","-1,572274189","1,863036445"
"1,735441042","0,2231410052","0,4120262437","-1,08277687","1,179814936"
"1,745395042","0,619306384","0,09600952685","-0,6323605853","0,8903022725"
"1,755350042","0,8146758923","0,2743845414","-0,4770959598","0,9831603332"
"1,765304042","1,011792037","0,07015080035","-0,731375581","1,250421729"
"1,775258042","0,7109241403","0,05169245616","-1,005584267","1,23259278"
"1,785213042","-0,4522289941","0,516162377","-1,086874014","1,285390907"
"1,795167042","-1,270927698","0,6441539077","-1,034435014","1,760751904"
"1,805121042","-0,7297123405","0,3220466579","-0,8851737249","1,191522838"
"1,815076042","0,03688664831","0,178396503","-0,6855439353","0,7093351989"
"1,825030042","0,1318305932","0,4372204341","-0,4779297727","0,6610278973"
"1,834985042","0,2089683777","0,4886362439","-0,3878428906","0,6579173729"
"1,844939042","0,2366494621","0,2709757608","-0,5701386094","0,6741578931"
"1,854893042","0,2450807085","0,2427220879","-0,5752081454","0,6707033444"
"1,864848042","0,1495768927","0,2375553419","-0,4424868751","0,5240233028"
"1,874802042","0,3069996525","0,2245100576","-0,3622712624","0,5252561472"
"1,884756042","0,4222936254","0,1430389747","-0,2463162982","0,5093758663"
"1,894711042","-0,1685758485","0,06169967338","-0,03202403069","0,1823463873"
"1,904665041","0,2342987352","0,04061439447","0,1789745003","0,2976193846"
"1,914620042","0,2263166646","0,09420748807","0,193396073","0,3122440144"
"1,924574042","-0,06953271311","0,1185222573","-0,01406781614","0,1381311953"
"1,934528042","0,2747777483","0,09260217156","-0,2692245197","0,3956764021"
"1,944483042","0,1271762644","0,1985922012","-0,2476477093","0,3419679115"
"1,954437042","0,3942461034","0,2030257063","-0,3611316401","0,571896397"
"1,964392042","0,1707370708","0,1581185419","-0,4365472734","0,4946980317"
"1,974346042","-0,1773418663","0,1145926177","-0,2657331473","0,3394049368"
"1,984300042","0,1535729164","0,01803441192","-0,1943193483","0,24833423"
"1,994255042","0,08900310983","-0,05440722245","0,01726916671","0,1057351575"
"2,004209042","-0,4841779247","0,1661260479","0,3428666925","0,6161036401"
"2,014163041","-0,8530590624","0,7016704099","0,993892175","1,485891242"
"2,024118042","-0,7176479267","0,4833874542","1,711059022","1,917395357"
"2,034072042","-0,04362563287","-0,4018630154","1,639472145","1,688569215"
"2,044027042","0,5144299566","-0,536578369","1,08731197","1,317118767"
"2,053981042","0,08220769507","0,2984763124","0,4017347056","0,5071853585"
"2,063935042","0,0401124841","0,3463322642","-0,2669528764","0,4391114743"
"2,073890042","-0,1535509711","0,005228598509","-0,4758341306","0,5000233583"
"2,083844042","-0,3944813076","-0,1034164781","-0,1315775549","0,4285126871"
"2,093798042","-0,6856913582","-0,02818909775","0,3694960821","0,7794194113"
"2,103753042","-0,5890099498","0,07285724807","0,4401672846","0,7389101014"
"2,113707042","-0,3429323641","0,1137766114","0,6079782808","0,7072378055"
"2,123662042","-0,1348244224","0,1287837005","0,6748014307","0,7000855928"
"2,133616042","-0,03054505971","0,09108126509","0,5351658279","0,5437198367"
"2,143570042","0,08224055825","0,00805597053","0,3863436645","0,3950820614"
"2,153525042","0,1474179545","0,03837016915","0,1762631464","0,2329657056"
"2,163479042","0,2188623782","0,07911164006","0,0601660949","0,2403733579"
"2,173434042","0,1377669423","0,02090515726","-0,0107208699","0,1397558337"
"2,183388042","0,08078487564","-0,009853444593","-0,09519150138","0,125238606"
"2,193342042","0,00181749735","0,0007978525758","-0,1238253164","0,1238412244"
"2,203297042","-0,1770718894","-0,0523052809","-0,2165796983","0,2845998281"
"2,213251041","-0,1880050132","-0,05324666435","-0,3676097703","0,4163148274"
"2,223205042","-0,09183096036","0,05880663553","-0,3599984497","0,3761516043"
"2,233160042","-0,1402433844","0,03642433455","-0,1924546713","0,2409019292"
"2,243114042","-0,1098100887","-0,02674315441","0,03959500551","0,1197548176"
"2,253069042","0,04004714146","-0,01884252453","0,05495271742","0,07055930429"
"2,263023042","0,1355761368","-0,1050480066","-0,01705340445","0,1723565815"
"2,272977042","0,2547321226","-0,0312061514","-0,1348484874","0,289907559"
"2,282932042","0,2122030574","0,04474212673","-0,2599169219","0,3385096775"
"2,292886042","0,04200610489","-0,09202139687","-0,2231426132","0,2450001554"
"2,302841042","-0,08301913328","-0,1885103589","-0,1414698744","0,2498840876"
"2,312795042","-0,2289208682","-0,1740549454","-0,08701124668","0,3004510692"
"2,322749041","-0,1572706956","-0,1746012946","-0,1546880901","0,2813327016"
"2,332704042","-0,0064887283","-0,1469028879","-0,2203698635","0,2649253457"
"2,342658042","-0,101947484","-0,1000388797","-0,182919032","0,2320785195"
"2,352612042","-0,06629101675","-0,09180596352","-0,1767853028","0,2099425567"
"2,362567042","-0,1016859673","-0,008812740706","-0,1830394846","0,2095737418"
"2,372521042","-0,1150503634","0,04303302214","-0,3203075498","0,3430529895"
"2,382476042","-0,09294456258","0,01333589092","-0,4592023104","0,4687038507"
"2,392430042","-0,09542670563","0,0001840045676","-0,4088367337","0,4198258744"
"2,402384042","0,02706822306","0,002385810167","-0,2125749403","0,2143046571"
"2,412339042","0,05087888919","-0,01380761504","0,00856967926","0,05341115053"
"2,422293042","-0,0125726831","-0,0007473472506","0,04096734703","0,04285970614"
"2,432247041","0,02053213231","0,02212498695","-0,08677092612","0,09187098086"
"2,442202042","-0,03468283273","0,02541411884","-0,1614036173","0,1670326435"
"2,452156042","-0,1108404046","0,01354825448","-0,2356772894","0,2607928972"
"2,462111042","-0,06533313319","0,01383462187","-0,2937109047","0,3012074212"
"2,472065042","0,0008820524812","-0,01589203779","-0,2345464379","0,2350858703"
"2,482019042","-0,01344442986","0,05762251955","-0,1104673523","0,1253161736"
"2,491974042","0,0027307228","0,1277714561","-0,05563859582","0,1393867109"
"2,501928042","0,03975697339","0,138322976","-0,1610656482","0,2160000131"
"2,511883042","-0,02903405696","0,1277885957","-0,1845539135","0,2263471861"
"2,521837041","-0,1049252882","0,09820281744","-0,1576385951","0,2133144067"
"2,531791083","-0,06068927452","0,03766272001","-0,05723605514","0,09152941892"
"2,541746083","-0,06171392597","0,05037741736","0,1681805402","0,1860945645"
"2,551700083","-0,09745627418","0,08580321193","0,2743408334","0,3035173956"
"2,561654083","-0,06338089406","0,0712071364","0,1730150181","0,1975393391"
"2,571609083","-0,09618106954","0,04646460682","0,04936687231","0,1176726217"
"2,581563083","-0,1975457688","0,03795855258","-0,08963255346","0,2202252872"
"2,591518083","-0,1958706877","-0,01176891021","-0,02747080386","0,1981375245"
"2,601472083","-0,1732473718","0,0409410711","0,1197930765","0,2145721425"
"2,611426083","-0,1716764443","0,05416257586","0,1972569895","0,2670518789"
"2,621381083","-0,1233238446","0,03649802774","0,07394973636","0,1483557892"
"2,631335083","-0,04642206833","0,04415035196","-0,155393849","0,168081856"
"2,641289083","0,01501572289","0,09679363847","-0,325044964","0,3394830025"
"2,651244083","-0,04125919618","0,1342919421","-0,358485775","0,3850307752"
"2,661198083","-0,1481637669","0,1047526126","-0,2122276157","0,2792242334"
"2,671153083","-0,1897642943","0,02743140824","0,04633041322","0,1972548522"
"2,681107083","-0,1222445217","0,06717544466","0,1730120945","0,2222373692"
"2,691061083","-0,02955986783","0,09878293432","0,1103802288","0,1510484982"
"2,701016083","0,055825122","0,1664130365","0,05368971884","0,1835547027"
"2,710970083","0,06215078607","0,2305463211","-0,007638217807","0,2388988672"
"2,720925083","0,01199234694","0,1947357797","-0,04286827683","0,199758678"
"2,730879083","0,001410860047","0,2015055764","-0,07794046104","0,2160583331"
"2,740833083","-0,01092778824","0,1889772956","-0,0430109489","0,1941179449"
"2,750788083","-0,02998729929","0,169423037","0,0205143714","0,1732750502"
"2,760742083","-0,0188034761","0,1829440654","0,02526991189","0,1856358538"
"2,770696083","-0,03236185357","0,2062357546","-0,0601228255","0,2172446321"
"2,780651083","0,00982091032","0,2351765119","-0,09793910801","0,2549441329"
"2,790605083","0,04219321579","0,2352200736","-0,05357979119","0,2449072162"
"2,800560083","0,008556157574","0,1850468703","-0,00850594461","0,1854397561"
"2,810514083","-0,01596428744","0,1507434853","0,04715019286","0,1587501103"
"2,820468083","-0,02035335369","0,1143610497","0,1553242671","0,1939544706"
"2,830423083","-0,006550124064","0,0971289032","0,2352714926","0,2546165807"
"2,840377083","0,056542283","0,07635126092","0,191174131","0,2134808965"
"2,850331083","0,1425029312","0,07821816724","0,1653230059","0,2318552638"
"2,860286083","0,1003463336","0,09122288648","0,2356919074","0,2719221891"
"2,870240083","-0,001146346629","0,05174266912","0,2084228325","0,2147526368"
"2,880195083","0,02490965031","0,05744311966","0,09734035313","0,1157382695"
"2,890149083","0,03880124599","0,1038435167","-0,03221757352","0,1154425602"
"2,900103083","0,01383136936","0,1010049128","-0,1662059355","0,1949813124"
"2,910058083","0,002914544642","0,1191266036","-0,1741172183","0,2109892129"
"2,920012083","0,006708145067","0,1552950676","-0,158766523","0,2221899324"
"2,929966083","-0,01310784951","0,111267763","-0,07106004238","0,1326720032"
"2,939921083","-0,01388194777","0,09609705236","-0,03380158424","0,1028100143"
"2,949875083","0,07473991446","0,1058430452","-0,1009960324","0,1642833028"
"2,959830083","0,0954824369","0,05929522522","-0,1437409329","0,1824671896"
"2,969784083","0,08234370679","0,04827651277","-0,05349559128","0,1094206837"
"2,979738083","0,07536110803","0,0863565778","0,02210773766","0,1167283479"
"2,989693083","0,0217712304","0,03922725219","-0,01875085115","0,04862466665"
"2,999647083","-0,07669920679","-0,002974442057","-0,01992029428","0,07929964535"
"3,009601083","-0,1235898564","0,002775271274","0,01649382591","0,1247164826"
"3,019556083","-0,1230643013","0,02430453658","0,004828630686","0,125534252"
"3,029510083","-0,1177603651","0,02790620215","-0,0425203675","0,1282740868"
"3,039465083","-0,1624197903","0,01598511815","-0,05211214006","0,1713224662"
"3,049419083","-0,2192529722","0,04431560889","-0,07024026275","0,234455611"
"3,059373083","-0,2651594623","0,02712559886","-0,2133678228","0,3414251988"
"3,069328083","-0,2891353488","0,00652615048","-0,320042671","0,4313573366"
"3,079282083","-0,3107821066","-0,0479963946","-0,2835899591","0,4234529922"
"3,089237083","-0,2469470301","-0,0630455197","-0,1270319295","0,2847712843"
"3,099191083","-0,1781671825","-0,08928742155","-0,02050677001","0,2003405006"
"3,109145083","-0,07951741856","-0,1347509851","0,0606730485","0,1678155733"
"3,119100083","0,05659465212","-0,12711496","0,1722016704","0,2213923734"
"3,129054083","0,1192793986","-0,06850857329","0,1419037378","0,1976301352"
"3,139008083","0,1243722869","-0,02598232202","0,03229651093","0,1310977171"
"3,148963083","0,118293887","0,01280620627","-0,02034772575","0,1207123546"
"3,158917083","0,07519369494","0,03653826389","-0,1195808226","0,1459065099"
"3,168872083","0,06713312544","0,02986702938","-0,2869491845","0,2962072425"
"3,178826083","0,1503573498","0,07543679293","-0,2854148751","0,331300005"
"3,188780083","0,1644075878","0,07719581813","-0,2235782307","0,2880560267"
"3,198735083","0,1274832249","0,06908532802","-0,1614562422","0,2170089245"
"3,208689083","0,09661602929","0,07631383874","-0,1893076998","0,225822639"
"3,218643083","0,0762331837","0,06674286034","-0,3112139601","0,3272922801"
"3,228598083","0,1844215837","0,009524675757","-0,1894035941","0,2645293206"
"3,238552083","0,2187861452","0,1002399143","-0,1511318135","0,284176429"
"3,248507083","0,0831483933","0,04792487584","-0,1125635791","0,1479223052"
"3,258461083","0,08259740286","-0,02493819203","-0,04437335014","0,09702184591"
"3,268415083","0,1108118995","0,02386997882","0,06080694973","0,1286333475"
"3,278370083","0,1462987974","0,01671094034","0,1289509857","0,1957318328"
"3,288324083","0,06219708871","-0,05956098117","0,1874880463","0,2063195478"
"3,298278083","0,01227904323","-0,04711083379","0,2031913286","0,2089423882"
"3,308233083","0,01684443958","-0,04220885709","0,1736365771","0,17948533"
"3,318187083","-0,05070906412","-0,07032179486","0,1433813292","0,1675552732"
"3,328142083","-0,08265770227","-0,04771492425","0,1005475509","0,1386319578"
"3,338096083","-0,06629346527","-0,01876590773","0,119787814","0,1381886508"
"3,348050083","-0,06518914551","-0,01369344816","0,1261852527","0,1426879575"
"3,358005083","-0,04971193112","-0,01108379927","0,1235370487","0,1336245827"
"3,367959083","-0,01468488012","0,007105353735","0,2469600767","0,2474983055"
"3,377914083","0,01749428451","0,0278156434","0,2706091404","0,2725968945"
"3,387868083","-0,01805199925","0,02420878842","0,1130360341","0,1170003638"
"3,397822083","-0,05625602525","0,05456976134","-0,04060423493","0,08826835857"
"3,407777083","-0,04908839867","0,09880826008","-0,1421580917","0,1799490655"
"3,417731083","-0,0330508383","0,1296974193","-0,1636039245","0,2113764949"
"3,427685083","-0,03858928442","0,1177446507","-0,09567272723","0,1565445827"
"3,437640083","-0,05707470853","0,1027644131","-0,03454535007","0,1225211335"
"3,447594083","0,01596786886","0,1338595405","-0,06312654018","0,1488566743"
"3,457549083","0,0125606963","0,1010197136","-0,09131596684","0,1367529138"
"3,467503083","-0,03558461957","0,04851036485","-0,08959922433","0,107923777"
"3,477457083","0,004461279362","0,07677617077","-0,06497542977","0,1006791432"
"3,487412083","0,03773617566","0,1101404564","-0,09110312819","0,1478334166"
"3,497366083","-0,05559262209","0,1080571665","-0,1515136367","0,1942248001"
"3,507320083","-0,05090980634","0,08483078342","-0,1418791795","0,1729675454"
"3,517275083","-0,0008851953596","0,06926692061","-0,09087625623","0,1142680349"
"3,527228667","-0,02891733192","0,02966723733","-0,0651794976","0,07723162541"
"3,537183667","-0,001388348266","0,01847219478","-0,05253664792","0,05570681166"
"3,547137666","0,07355548784","0,04801495951","-0,05580290258","0,1040663734"
"3,557091667","0,06418941781","0,03801249314","-0,0522325927","0,0910685167"
"3,567046667","0,008322488219","0,02032868575","-0,07884327114","0,08184607919"
"3,577000667","0,02318881474","0,004026538879","-0,1366359812","0,1386482077"
"3,586954667","-0,003491226286","-0,009265826829","-0,07282590151","0,07349596001"
"3,596909667","0,03314684227","-0,02924481254","0,05308687091","0,06908102544"
"3,606863667","0,06128320545","0,004521615319","0,1077191609","0,1240140875"
"3,616818667","0,042655292","0,02820247326","0,01374855816","0,05295164101"
"3,626772667","0,0078373155","0,01795577601","-0,1035904419","0,1054268138"
"3,636726667","0,006653619781","0,03422923498","-0,1404273158","0,1446918872"
"3,646681667","-0,02783523157","0,05386144426","-0,1545775777","0,1660424127"
"3,656635666","-0,06884453237","0,06488816008","-0,2049256128","0,2257089935"
"3,666589667","-0,07436817773","0,07886589255","-0,1688447839","0,2006464949"
"3,676544667","-0,03733454503","0,08047394995","-0,1382585835","0,1642722155"
"3,686498667","-0,06425914586","0,09325833879","-0,1637337327","0,1990856369"
"3,696453667","-0,06120638765","0,08362625699","-0,1820577371","0,2094864969"
"3,706407667","-0,06445173852","0,04816325951","-0,132259925","0,1548108973"
"3,716361667","-0,06962952107","0,05296499301","-0,0549521327","0,1033116527"
"3,726316667","-0,07388044685","0,06461078279","-0,07633832395","0,1243399107"
"3,736270667","-0,1061159275","0,05736896966","-0,09206090212","0,151746494"
"3,746225666","-0,09364900589","0,06724900994","-0,01606873333","0,1164077739"
"3,756179667","-0,0266318015","0,08221199825","0,02308422267","0,08944801197"
"3,766133667","-0,04108611859","0,04842821147","0,06177290976","0,08859601113"
"3,776088667","-0,03910281613","0,05422561616","0,07983788252","0,1041322964"
"3,786042667","0,01010917805","0,04699447419","0,06335808992","0,07952938856"
"3,795996667","-0,0253861253","0,0243934508","0,06386621296","0,07292728542"
"3,805951667","-0,01762913592","0,01017828483","0,08510213077","0,08750289468"
"3,815905667","0,04358982325","0,04220787037","0,09082538545","0,1092283281"
"3,825859667","0,07939627156","0,03438520946","0,08731179357","0,1229205429"
"3,835814667","0,07018230222","0,04537921742","0,101028192","0,131116454"
"3,845768667","0,08238039806","0,05828588616","0,1242381299","0,1600590123"
"3,855723666","0,09477781087","0,04445970621","0,1190960884","0,1585666333"
"3,865677667","0,1109634885","0,03714816503","0,03545576155","0,1222701639"
"3,875631667","0,1816811033","0,0581227123","-0,0942512691","0,2127664793"
"3,885586667","0,2126518312","0,05554697726","-0,1307981211","0,2557624219"
"3,895540667","0,1403996146","0,0305467682","-0,148442679","0,2065923179"
"3,905495667","0,06620239489","-0,003929255828","-0,1780559027","0,1900055279"
"3,915449667","0,06141169801","0,0314100365","-0,2036795712","0,2150426812"
"3,925403667","0,0580608049","0,06316052713","-0,1900076115","0,2084783003"
"3,935358667","0,04440836035","0,06687632304","-0,1005019426","0,12862809"
"3,945312667","0,08490602978","0,08449719977","0,004235138297","0,119861366"
"3,955266667","0,08780171715","0,1037987855","0,07267796695","0,154160359"
"3,965221666","0,04790594548","0,1184922172","-0,03410154641","0,1322811423"
"3,975175667","0,03828500994","0,09670110628","-0,1324400192","0,1683959757"
"3,985130667","0,01370309606","0,1109109367","-0,1442619199","0,1824842794"
"3,995084667","0,005921475291","0,1151581348","-0,1665871739","0,2026024344"
"4,005038667","0,01225101314","0,1161496399","-0,1344625711","0,1781039281"
"4,014993667","-0,01827327982","0,1018445364","-0,06226407588","0,120760248"
"4,024947667","-0,03356667235","0,06805702206","0,053897295","0,09307737723"
"4,034901667","-0,01507836118","0,08505674176","0,1592571044","0,1811762446"
"4,044856667","0,03590694733","0,08346681073","0,1854345042","0,2064993285"
"4,054810667","-0,001223383695","0,05925462361","0,1694382763","0,1795046979"
"4,064765667","-0,000911873281","0,05853651244","0,1184376919","0,1321167729"
"4,074719667","0,004536635354","0,07309490997","0,0369620043","0,08203436284"
"4,084673667","-0,01815648168","0,1035582457","-0,02261410654","0,1075423912"
"4,094628667","-0,01420858786","0,1188596051","-0,0766242528","0,1421293981"
"4,104582667","0,0006491871178","0,1128891228","-0,1126805234","0,1595032158"
"4,114536667","-0,0116020453","0,09846305508","-0,09425887048","0,1368002753"
"4,124491667","-0,01749607522","0,1015471324","-0,06134372413","0,1199207457"
"4,134445667","-0,03774359431","0,07122387405","-0,04215725541","0,09096512151"
"4,144400667","-0,07679988854","0,06414212845","-0,08134412527","0,1289546519"
"4,154354667","-0,1132919229","0,06612166677","-0,1132301617","0,1732864799"
"4,164308666","-0,09426409643","0,09048335988","-0,09516401947","0,1616451326"
"4,174263667","-0,0570305986","0,08870836448","-0,04414472401","0,1143259365"
"4,184217667","-0,07328435976","0,06207345665","0,0162061429","0,09739789768"
"4,194171667","-0,1150381938","0,03892286807","0,04995919526","0,1313190652"
"4,204126667","-0,1026555452","-0,005807783492","0,01847076952","0,1044655955"
"4,214080667","-0,08748772167","-0,004217998646","-0,04277822971","0,09747753532"
"4,224035667","-0,1146451879","-0,01740226395","-0,1025320959","0,1547875595"
"4,233989667","-0,1180105163","-0,02373812411","-0,07009408236","0,1392952292"
"4,243943667","-0,08311685488","-0,01434819013","-0,02867649972","0,0890877307"
"4,253898667","-0,04599226143","0,006778859831","0,02081491828","0,05093625305"
"4,263852667","-0,1119964357","-0,006743739992","0,06087185383","0,1276481971"
"4,273806666","-0,08165749948","-0,003833909668","0,05047901273","0,09607693173"
"4,283761667","-0,039805688","-0,0061767428","0,001032618284","0,04029530059"
"4,293715667","-0,05401851509","-0,03761762336","-0,02755909681","0,07136238068"
"4,303670667","-0,05072656922","-0,01386056889","-0,04040016711","0,06631345035"
"4,313624667","0,009679261521","0,0008728796616","-0,08898935974","0,08951846831"
"4,323578667","0,04388635017","0,005475405827","-0,09184981763","0,1019430272"
"4,333533667","0,040485573","0,04019507602","-0,1000341654","0,1151588468"
"4,343487667","0,03170323782","0,0731796946","-0,1755953944","0,1928577339"
"4,353441667","0,02909914378","0,1170669219","-0,3380702215","0,3589469307"
"4,363396667","-0,02118694738","0,1334417569","-0,5294548523","0,5464229405"
"4,373350667","-0,09380644217","0,1388158963","-0,6662633264","0,6870053288"
"4,383305667","-0,09268878344","0,1662115269","-0,7056729752","0,7308842796"
"4,393259667","-0,08391770415","0,1624704418","-0,6642436981","0,6889546545"
"4,403213667","-0,07751566082","0,120286545","-0,5203027904","0,5396225758"
"4,413168667","0,01104257639","0,1099146808","-0,3185487074","0,3371593904"
"4,423122667","0,07106830157","0,0896807199","-0,1525135106","0,1906664782"
"4,433076667","0,06181943167","0,03750140995","0,04128835917","0,08326299588"
"4,443031667","0,05565427367","0,01552362666","0,1505774975","0,1612822492"
"4,452985667","0,03482393336","0,01851374656","0,2475196552","0,2506420652"
"4,462939667","0,005685430504","0,02261428926","0,3390408593","0,3398417786"
"4,472894666","-0,02328207783","0,02337490238","0,3905524904","0,3919434767"
"4,482848667","0,009593197815","0,05678516172","0,3728336728","0,3772552605"
"4,492803667","0,06649431713","0,08831696648","0,3018402886","0,3214481928"
"4,502757667","0,06998331416","0,1119616813","0,2446679682","0,2780206773"
"4,512711667","0,03566863675","0,1473918613","0,2105822092","0,2595023685"
"4,522666667","0,05151345827","0,1964503661","0,1389684355","0,246086588"
"4,532620792","0,04566214956","0,2194647876","0,07457831204","0,2362451048"
"4,542574792","-0,01727939934","0,2056803422","0,03790574491","0,2098566804"
"4,552529792","-0,0326769454","0,2028094324","-0,0213820982","0,2065348463"
"4,562483791","-0,01966791384","0,1927016065","-0,02361807346","0,1951372578"
"4,572438792","-0,03760797545","0,1713212259","0,04094278872","0,1801156135"
"4,582392792","-0,008192716576","0,1856920009","0,06047658205","0,1954636968"
"4,592346792","0,03733571447","0,1816202557","0,04290277541","0,1903168963"
"4,602301792","-0,01709053427","0,2020686632","-0,01210256696","0,2031509369"
"4,612255792","-0,06344148584","0,2119287134","-0,1312325692","0,2572170074"
"4,622210792","-0,03530099306","0,2298154191","-0,2283729476","0,3259071803"
"4,632164792","0,003924760781","0,2309690382","-0,2370882225","0,331018014"
"4,642118792","0,03231050771","0,2017074515","-0,2500643635","0,3228963468"
"4,652073791","0,06320229817","0,1655570042","-0,2378091842","0,2965752185"
"4,662027792","0,09010541048","0,18280841","-0,1777132559","0,2704069176"
"4,671981792","0,06168856367","0,1594003977","-0,1223062098","0,2101732015"
"4,681936792","0,06307369597","0,1625577115","-0,117803269","0,2104302993"
"4,691890792","0,1226895679","0,1757751597","-0,2069738925","0,2979728662"
"4,701844792","0,09873663168","0,1792236282","-0,2062289572","0,2905174937"
"4,711799792","0,06668811578","0,1842632338","-0,1862332338","0,2703387902"
"4,721753792","0,07605798651","0,1812147148","-0,2000583905","0,280440635"
"4,731708792","0,1208386318","0,210560136","-0,2057009536","0,3181987242"
"4,741662792","0,08966325134","0,2124683748","-0,1607651013","0,2811187058"
"4,751616792","0,03745653257","0,1895384821","-0,00668687582","0,1933197929"
"4,761571791","0,0420015002","0,2016611854","0,08618795872","0,2232929106"
"4,771525792","0,0823942852","0,2216900917","0,1156468159","0,2632669767"
"4,781479792","0,0599476283","0,2422360381","0,09276315272","0,2662273817"
"4,791434792","0,01214879651","0,2683938862","0,04146494508","0,2718496148"
"4,801388792","0,006259151995","0,2888226324","-0,0238765204","0,2898754529"
"4,811343792","-0,001387032643","0,2933406663","-0,06828904688","0,3011877559"
"4,821297792","0,009116028473","0,2925716478","-0,04958321929","0,2968834228"
"4,831251792","0,05847961172","0,3156253188","-0,02497696638","0,3219674762"
"4,841206792","0,02396349773","0,3212364531","-0,02415952563","0,32303373"
"4,851160792","-0,01272229873","0,2988955943","-0,007992559075","0,299272976"
"4,861114792","-0,0176188302","0,3129522276","-0,02105991662","0,3141544844"
"4,871069791","-0,02086513124","0,3436327874","0,0008753281832","0,3442667752"
"4,881023792","-0,1020301124","0,3940088161","0,07309604287","0,4135167741"
"4,890978792","-0,1624529001","0,4621421443","0,09369344473","0,4987431883"
"4,900932792","-0,1607813273","0,526970809","0,107670629","0,5613749487"
"4,910886792","-0,236061086","0,5349477998","0,1238294095","0,5976852914"
"4,920841792","-0,1999508383","0,5370489237","0,192665171","0,6045839497"
"4,930795792","-0,1713965454","0,5414795417","0,218191191","0,6084276996"
"4,940749792","-0,1393837706","0,5163506573","0,1497787678","0,555409323"
"4,950704792","-0,09705877315","0,4780281156","0,1602581477","0,5134334997"
"4,960658792","-0,1149114554","0,4974789516","0,3497605598","0,6188880343"
"4,970613792","-0,1128506408","0,4951000119","0,4006219804","0,6468054268"
"4,980567791","-0,004295072258","0,3893807449","0,3292947203","0,5099713962"
"4,990521792","-0,0491854259","0,4263871515","0,3285983169","0,5405571782"
"5,000476792","-0,1574771754","0,3286931149","0,2457385933","0,4395744315"
"5,010430792","-0,1575399599","-0,01569856804","0,02641245782","0,1605082612"
"5,020384792","0,1868435369","0,5155492599","-0,1771150857","0,57625628"
"5,030339792","0,4176854713","0,644428069","-0,05278807819","0,7697631261"
"5,040293792","0,4832500812","0,3756828382","0,01715280712","0,6123417793"
"5,050248792","0,3201559608","0,3870114896","0,2040409291","0,542135069"
"5,060202792","0,1708806017","0,2971435858","0,3633103126","0,4994886123"
"5,070156791","0,0280638577","0,1497866616","0,1149036348","0,1908571963"
"5,080111792","0,1477399534","0,1903225206","-0,0730861026","0,2517763572"
"5,090065792","0,1386165428","0,2688330486","-0,2841822821","0,4150244853"
"5,100019792","0,1390184292","0,1947125736","-0,5903693908","0,6370048097"
"5,109974792","0,3264498672","0,605691252","-0,8235873413","1,073185686"
"5,119928792","0,5085392523","0,575790857","-0,9476518089","1,219914437"
"5,129883792","0,532698449","0,5385429604","-1,024372541","1,274023257"
"5,139837792","0,696466388","0,668984182","-0,8876377416","1,311680611"
"5,149791792","0,4914619839","0,6819888282","-0,5810565305","1,021895462"
"5,159746792","0,2187008489","0,4710710253","-0,5354780692","0,7459723418"
"5,169700792","-0,009531290419","0,3326327861","-0,5475864834","0,6407701402"
"5,179654791","0,006280750148","0,3199641355","-0,3457850379","0,4711515555"
"5,189609792","0,1345770304","0,3973471377","-0,2252288997","0,4761552081"
"5,199563792","0,1154765157","0,4055749741","-0,3091364443","0,5228682688"
"5,209517792","0,06623948816","0,3341250686","-0,5605386508","0,65591982"
"5,219472792","0,01367550451","0,3385796968","-0,7683785158","0,8397790031"
"5,229426792","0,05365628008","0,4219281014","-0,7839806414","0,891923744"
"5,239381792","0,01773581106","0,4905467485","-0,5872446388","0,7653802566"
"5,249335792","-0,08629781328","0,5210721378","-0,4464781845","0,6915968873"
"5,259289792","-0,1167077566","0,5375731631","-0,376031515","0,6663372318"
"5,269244792","-0,1064055108","0,5962508858","-0,2362029541","0,6500992902"
"5,279198792","-0,1433579769","0,6157669913","-0,2674832189","0,6864894533"
"5,289152791","-0,1897963078","0,648103044","-0,4151259989","0,7927104068"
"5,299107792","-0,2509104556","0,7550725919","-0,4044355345","0,8925574364"
"5,309061792","-0,2519448646","0,8619959468","-0,3568620032","0,9663662434"
"5,319016792","-0,2086152059","1,019510873","-0,430063296","1,126000517"
"5,328970792","-0,006318720505","1,217561111","-0,4673404652","1,304186373"
"5,338924792","0,09870202348","1,342505219","-0,3250046182","1,384806973"
"5,348879792","0,07683204822","1,367180761","-0,07104191601","1,371179547"
"5,358833792","-0,0520753026","1,380149301","0,1596126151","1,390323745"
"5,368787792","-0,1000725377","1,42040738","0,2445358211","1,444773133"
"5,378742792","-0,126005597","1,509057017","0,2379261285","1,532885949"
"5,388696792","-0,1288156226","1,645772813","-0,01702533782","1,650894145"
"5,398651792","-0,07694818854","1,824730502","-0,3695925611","1,863373578"
"5,408605792","-0,06195249237","1,928701598","-0,6069269514","2,022891072"
"5,418559792","-0,01816035546","1,990441617","-0,7075657189","2,112542751"
"5,428514792","0,05064119987","2,087566208","-0,7023032248","2,203117569"
"5,438468792","0,1078811288","2,101898464","-0,7160494441","2,22313794"
"5,448422792","0,1224469815","2,026930728","-0,6421406382","2,12973849"
"5,458377792","0,01820676774","1,956130009","-0,5190117252","2,02389458"
"5,468331792","-0,04253520481","1,909978229","-0,4015376544","1,952193271"
"5,478286792","-0,1476222416","1,882958976","-0,2857961136","1,910237224"
"5,488240791","-0,2412432539","1,829652104","-0,2874953145","1,867746954"
"5,498194792","-0,2478240028","1,8798696","-0,4356263369","1,945532512"
"5,508149792","-0,2966842139","1,942542981","-0,8516890597","2,141697693"
"5,518103792","-0,3040239313","2,108592357","-1,313601555","2,502826667"
"5,528057417","-0,04288391814","2,338242775","-1,530749602","2,795069346"
"5,538012417","-0,1523807057","2,511900402","-1,685791449","3,028986021"
"5,547966417","-0,2752089988","2,672814607","-1,679285252","3,168544915"
"5,557921417","-0,2692932976","2,802642675","-1,235969827","3,074889633"
"5,567875416","-0,1455368321","2,837469569","-0,7329362029","2,934213694"
"5,577829417","-0,05859494805","2,796042631","-0,3839609241","2,822891027"
"5,587784417","-0,2255360247","2,689919467","-0,0683030802","2,700221945"
"5,597738417","-0,3055468386","2,568859884","0,2675539702","2,600766253"
"5,607692417","-0,3823624416","2,538295318","0,6372587979","2,644852157"
"5,617647417","-0,3585918289","2,608701642","0,7134655595","2,728176215"
"5,627601417","-0,2555947331","2,70400424","0,6583105284","2,794698615"
"5,637555417","-0,328088659","2,771674944","0,5283251703","2,840590018"
"5,647510417","-0,389564384","2,780324438","0,1488361967","2,81142608"
"5,657464417","-0,4089324819","2,728830641","-0,01668795347","2,759351541"
"5,667419417","-0,5456465234","2,755978094","-0,06061457634","2,810128024"
"5,677373416","-0,5573660246","2,704445997","-0,2445638877","2,772092447"
"5,687327417","-0,44566586","2,656301193","-0,05003228545","2,693892596"
"5,697282417","-0,4225930394","2,711533408","0,3510112792","2,766623794"
"5,707236417","-0,365493736","2,680323017","0,4546321267","2,74306535"
"5,717190417","-0,2707964706","2,671792222","0,2212872916","2,694582058"
"5,727145417","-0,04440507129","2,800934411","0,1412260455","2,804844057"
"5,737099417","0,1594625609","2,908022658","0,2893073666","2,926725617"
"5,747054417","0,1243634795","2,891180045","0,2799553299","2,907363637"
"5,757008417","0,04258943774","2,809855216","-0,06356975913","2,810896887"
"5,766962417","0,1004158424","2,856258427","-0,2124042016","2,865904933"
"5,776917417","0,09892787218","2,905072445","-0,2042824191","2,913925864"
"5,786871416","0,1352295066","2,927271692","-0,05676009178","2,930943241"
"5,796825417","0,03533567436","3,003629019","0,2726328617","3,016183776"
"5,806780417","-0,1502002059","2,905067767","0,4093238068","2,937605285"
"5,816734417","-0,283862951","2,795698814","0,4522429544","2,846231495"
"5,826689417","-0,3567680823","2,730770747","0,6396333522","2,827281939"
"5,836643417","-0,2432144965","2,595823149","0,6629210579","2,690151565"
"5,846597417","-0,08449204691","2,565718467","0,4783946264","2,611304574"
"5,856552417","0,1181834842","2,589554349","0,1594295973","2,597147832"
"5,866506417","0,3786741641","2,708136175","-0,4002360642","2,763618022"
"5,876460417","0,541121217","2,810728498","-1,018657472","3,038201755"
"5,886415417","0,6980623855","2,768080368","-1,681131803","3,312969085"
"5,896369416","0,7614459108","2,761932606","-2,186624765","3,604080945"
"5,906323417","0,9617572664","2,667479023","-2,471372473","3,761396453"
"5,916278417","1,031882631","2,452548532","-2,285594153","3,50766542"
"5,926232417","0,9388581081","2,320009549","-1,516056134","2,926145084"
"5,936187417","1,067693319","2,089956111","-0,9289512438","2,524051502"
"5,946141417","1,414874599","1,676257418","-0,4426160985","2,237770782"
"5,956095417","1,622278115","1,179293277","0,1414242661","2,010601835"
"5,966050417","1,812804375","0,5211183674","0,8330650932","2,061994545"
"5,976004417","1,913359235","-0,111167264","1,74685743","2,593224364"
"5,985958416","1,869727019","-0,613249765","2,60641158","3,265782559"
"5,995913417","1,688693568","-0,8906703269","3,045288969","3,594268285"
"6,005867417","1,314568976","-0,8157282449","2,91703731","3,301910179"
"6,015822417","1,080414741","-0,5228698277","2,226257193","2,529211331"
"6,025776417","1,031086021","-0,1485152211","1,663524667","1,962781056"
"6,035730417","1,043203206","0,2766176661","1,507703387","1,854173607"
"6,045685417","1,071193535","0,5135550305","1,279372539","1,74584892"
"6,055639417","0,7807713971","0,7842332411","1,249100334","1,668795193"
"6,065593417","0,6706519541","1,043883603","1,358842632","1,840087041"
"6,075548417","0,7261766754","1,375689483","1,54955951","2,19567502"
"6,085502417","0,7157088438","1,724702769","2,041450095","2,766650914"
"6,095457416","0,7103397111","1,929303276","2,604778453","3,318382803"
"6,105411417","0,5636083659","2,117315964","3,263040449","3,930408917"
"6,115365417","0,05727303877","2,342755656","3,516847615","4,226109489"
"6,125320417","-0,2580496866","2,495492823","3,241170108","4,098689759"
"6,135274417","-0,3968611244","2,832345069","3,223136711","4,309093593"
"6,145228417","-0,6162079445","3,082329618","3,33561609","4,583317882"
"6,155183417","-1,041064807","3,211238504","3,34563237","4,752801765"
"6,165137417","-1,413097922","3,266588832","2,956680847","4,627030362"
"6,175091417","-1,497597351","3,407635368","2,113392482","4,280327606"
"6,185046417","-1,24214127","3,809529702","1,418586558","4,250625755"
"6,195000417","-0,4841432799","4,292008317","1,016911494","4,437323415"
"6,204955416","-0,04057883609","4,554477256","0,6497110283","4,600764516"
"6,214909417","-0,01757070031","4,25685778","0,1917483276","4,261210427"
"6,224863417","0,07379383497","3,973927971","0,1125793666","3,976207133"
"6,234818417","0,2105981794","3,841018713","0,2216275996","3,853166897"
"6,244772417","0,1246970997","3,562085769","-0,1443648309","3,567190154"
"6,254726417","-0,1655382931","3,491148518","-0,72392272","3,569255525"
"6,264681417","-0,4786421829","3,534364119","-1,608242751","3,912450998"
"6,274635417","-0,5540593145","3,531804208","-2,823401168","4,555460113"
"6,284590417","-0,2008317396","3,726734006","-3,865129999","5,37290514"
"6,294544416","0,381432917","3,991290401","-4,784860184","6,242657856"
"6,304498417","0,4033875307","3,833907329","-5,13431318","6,420493652"
"6,314453417","-0,04784065766","3,239314787","-4,172883577","5,282840747"
"6,324407417","-0,4446039326","2,506313387","-2,679381908","3,695722779"
"6,334361417","-0,8200321611","1,782087489","-1,21580278","2,307913552"
"6,344316417","-0,7942892826","1,464888758","-0,3080634803","1,694608405"
"6,354270417","-0,08544682413","1,45057185","-0,2095069063","1,468112052"
"6,364224417","0,7924717487","1,483369614","-0,4434013796","1,739253192"
"6,374179417","1,33568298","1,494405064","-0,4851142466","2,06219091"
"6,384133417","1,502524508","1,451535618","-0,2626961035","2,105598439"
"6,394088417","1,381409376","1,267965937","-0,377234872","1,912677607"
"6,404042416","1,463933469","0,9887133691","-0,1928505278","1,777033104"
"6,413996417","1,583884859","0,4741320793","1,201898101","2,044028258"
"6,423951417","1,460606111","-0,04015129499","3,415654532","3,715060998"
"6,433905417","1,343270181","-0,4989858156","5,158451656","5,353782318"
"6,443859417","0,7276623067","-0,8138705114","5,57531837","5,681201684"
"6,453814417","0,05049465403","-0,2371353657","4,287913511","4,294762528"
"6,463768417","-0,577982503","0,6162854201","3,151735191","3,263021024"
"6,473723417","-0,598896824","0,8607310478","3,019484621","3,196376499"
"6,483677417","-0,2599846034","0,9188400923","3,67555859","3,797576866"
"6,493631417","-0,3581616931","1,176121747","3,999363944","4,184071476"
"6,503586417","-0,3989900225","1,23991392","3,461336489","3,698300942"
"6,513540416","-0,532371005","1,150225672","3,222167242","3,462484616"
"6,523494417","-0,9226353738","1,319242217","3,447873275","3,805192003"
"6,533448833","-0,865802338","1,340266612","3,783363705","4,106064929"
"6,543402833","-0,7195589429","1,15674444","4,018929312","4,243538098"
"6,553356833","-0,7418885824","1,182373517","3,852423415","4,097508019"
"6,563311833","-1,087594975","1,139985735","3,510343173","3,847718739"
"6,573265833","-1,524372044","1,060735205","2,886639975","3,432427661"
"6,583220833","-1,795159378","1,079974884","2,175923776","3,02052764"
"6,593174833","-2,057868346","0,9811471452","1,631088408","2,803198395"
"6,603128833","-2,126071585","0,8917850254","1,142291","2,572992352"
"6,613083833","-1,65673488","0,9414908901","1,103507003","2,20202254"
"6,623037833","-0,8872679783","1,078992405","0,8567299443","1,638735877"
"6,632991833","-0,330977622","1,172698275","0,01073256433","1,218557598"
"6,642946833","0,1269864674","1,342306267","-0,9554824001","1,652530876"
"6,652900833","0,5381987786","1,60974417","-1,463991356","2,241473826"
"6,662855833","0,9372485159","1,831411092","-1,857479734","2,771774221"
"6,672809833","1,035390961","1,892587878","-2,502991877","3,304374624"
"6,682763833","0,9863676124","1,723589459","-3,309693044","3,859760321"
"6,692718833","1,060504971","1,636218316","-3,999513633","4,449493282"
"6,702672833","1,417388463","1,660560129","-4,668501177","5,153770778"
"6,712626833","1,635199439","1,436967572","-5,259620181","5,692306866"
"6,722581833","1,742943304","1,017308812","-5,488952656","5,848193725"
"6,732535833","1,817597338","0,4033505105","-5,102304352","5,431377488"
"6,742489833","1,951317897","-0,2260877826","-4,047713401","4,499193372"
"6,752444833","2,188383754","-0,6288380034","-2,710528271","3,539975169"
"6,762398833","2,434252156","-0,8746167232","-1,880982617","3,198223503"
"6,772353833","2,695866086","-1,073873241","-1,30087392","3,180121168"
"6,782307833","2,844276897","-1,072515737","-1,137053064","3,245472345"
"6,792261833","3,112386061","-1,027720876","-1,882998737","3,78005839"
"6,802216833","3,489344067","-0,8419313724","-3,33474427","4,899478523"
"6,812170833","3,788349625","-0,6169833583","-4,527562814","5,935578016"
"6,822124833","3,843653176","-0,3566836266","-4,802620516","6,161660228"
"6,832079833","3,814216538","-0,1412808814","-4,663957306","6,026666229"
"6,842033833","3,680494517","-0,007047850024","-4,477561519","5,796088916"
"6,851988833","3,118655445","0,05196378523","-4,91771477","5,82345521"
"6,861942833","2,363476288","0,123852908","-5,749366592","6,217441267"
"6,871896833","1,642828886","0,2576021554","-6,140328972","6,361515975"
"6,881851833","0,7170200819","0,5121735527","-5,575716566","5,644914062"
"6,891805833","-0,1925296618","1,014573484","-4,53473267","4,650830831"
"6,901759833","-0,1307835031","0,5984713294","-3,632523667","3,683816017"
"6,911714833","-0,004790331423","-0,2803057608","-2,392106448","2,40847826"
"6,921668833","-0,4998337349","-0,3038140894","-0,482402308","0,7581878067"
"6,931622833","-0,7564082421","0,03730245844","1,085577101","1,323639885"
"6,941577833","-1,010247568","0,3624847223","2,149466879","2,402540986"
"6,951531833","-1,35456744","0,6338462897","2,818910506","3,191061032"
"6,961486833","-1,277350426","0,7546941309","3,172888663","3,502628985"
"6,971440833","-1,469207511","0,8780122013","3,773950272","4,143932528"
"6,981394833","-1,757815112","1,005809385","4,683906251","5,102993657"
"6,991349833","-1,767617531","0,7593778968","5,543078578","5,86743953"
"7,001303833","-1,926668813","0,4678690535","6,394263023","6,694591382"
"7,011257833","-2,071280981","0,3505611167","7,165406687","7,467004151"
"7,021212833","-1,98942274","0,4051850013","7,291587262","7,568964428"
"7,031166833","-1,521107544","0,8110672832","6,821620812","7,03605776"
"7,041120833","-0,8882860516","1,265304138","6,390198623","6,574548282"
"7,051075833","-0,01686114069","1,791322289","6,23463462","6,486893608"
"7,061029833","1,00591522","2,399126616","6,172928368","6,698710218"
"7,070984833","1,242601739","2,884437913","5,446721726","6,287353872"
"7,080938833","0,9081863923","2,870412489","3,371834328","4,520324891"
"7,090892833","0,7382909368","2,566873585","1,103856667","2,89005416"
"7,100847833","0,4435913775","2,438651601","-0,1403840464","2,482640252"
"7,110801833","0,2965560868","2,43133381","-0,5545996338","2,51135628"
"7,120755833","0,3749571257","2,347367501","-1,108568938","2,622909095"
"7,130710833","0,4687957275","2,267622151","-2,1015431","3,127037424"
"7,140664833","-0,00873572648","2,180066967","-3,13421167","3,81785949"
"7,150619833","-0,580348725","1,931779572","-4,102681321","4,571714228"
"7,160573833","-0,7862144239","1,973109885","-4,951868357","5,388162578"
"7,170527833","-0,7237899151","2,375320554","-5,474148676","6,011016828"
"7,180482833","-0,8499864967","2,556093366","-5,517784692","6,140198551"
"7,190436833","-0,8878571583","2,442773888","-5,02793537","5,659997234"
"7,200390833","-0,9515361142","2,228024368","-4,426020067","5,045707799"
"7,210345833","-0,8913014607","1,921588606","-4,010576565","4,535597584"
"7,220299833","-0,832205187","1,688733622","-3,786927583","4,229090592"
"7,230253833","-0,8785652748","1,844622584","-3,880518701","4,385537003"
"7,240208833","-0,7868804949","1,964503953","-4,522083973","4,992764781"
"7,250162833","-0,8250344541","2,052171257","-5,379776954","5,816707728"
"7,260117833","-0,8329624745","2,08029578","-6,105950267","6,504159107"
"7,270071833","-0,5211917134","2,118770898","-6,517467365","6,873006021"
"7,280025833","-0,1140313764","2,09922921","-6,169923484","6,518260676"
"7,289980833","0,1536716978","1,757931034","-4,984796952","5,28792371"
"7,299934833","0,09198291488","0,9947979087","-3,535732952","3,674165381"
"7,309888833","-0,1654523025","0,1430926777","-2,215584855","2,226357166"
"7,319843833","-0,2931198974","-0,6274144987","-0,8411284035","1,089525226"
"7,329797833","-1,253305652","-1,075897474","0,9408626068","1,900934737"
"7,339752833","-2,501742034","-1,275235488","3,012162153","4,118016463"
"7,349706833","-3,739479766","-0,7238190781","4,877889385","6,188814736"
"7,359660833","-4,708435321","0,5639517071","5,006678987","6,895958177"
"7,369615833","-4,31789394","1,131669971","4,43581123","6,292956878"
"7,379569833","-2,487298242","1,071675419","4,908904186","5,606467788"
"7,389523833","-0,5741436598","1,426059591","6,548637117","6,726658531"
"7,399478833","-0,2219597945","1,767150631","7,983219318","8,17947909"
"7,409432833","-0,7742121367","0,894541476","8,256663773","8,340989482"
"7,419386833","-1,509137855","-0,1736004706","7,695696521","7,844193976"
"7,429341833","-1,605944065","-0,7073623089","6,390485137","6,627044443"
"7,439295833","-0,5257746148","-0,7419962443","5,2126647","5,291395907"
"7,449249833","0,8714734063","-0,3282183941","5,472031984","5,550705112"
"7,459204833","1,879622262","0,3357143053","6,299729918","6,582725954"
"7,469158833","2,014839855","0,4355427583","6,069983459","6,410458356"
"7,479113833","1,330639025","0,1870120098","5,018213205","5,195001201"
"7,489067833","0,151871066","-0,02608135924","3,637530638","3,640793073"
"7,499021833","-0,8626337318","-0,1017540873","1,893373452","2,083111585"
"7,508976833","-1,053788421","0,02360724698","0,08997227669","1,057885792"
"7,518930833","-1,138171783","0,3959328789","-1,520914586","1,940458458"
"7,528884833","-1,204269001","0,6645683648","-2,687177415","3,018747654"
"7,538840041","-1,114725471","0,6468764444","-3,132002007","3,386812452"
"7,548794042","-0,9426565325","0,5165520208","-2,85278635","3,048576272"
"7,558749042","-0,3022608862","0,3750993957","-2,227141292","2,278644232"
"7,568703042","0,5993306874","0,1345625585","-1,749628426","1,854320356"
"7,578657042","1,249204268","-0,1180310181","-1,324031818","1,824144424"
"7,588612042","1,782201656","-0,03961108536","-0,8951753873","1,994780879"
"7,598566042","2,234835205","0,02072092429","-0,6923261207","2,339707932"
"7,608520042","2,117213492","-0,1097602412","-0,8749159545","2,293494758"
"7,618475042","1,731228554","-0,1765397197","-1,721024432","2,44749743"
"7,628429042","1,677453027","-0,286506331","-2,910958545","3,37188585"
"7,638383042","1,759691923","-0,2093682542","-3,950209326","4,3294924"
"7,648338042","1,88909943","-0,001150238682","-4,877760746","5,230798015"
"7,658292042","2,115304814","0,1329046079","-5,728664525","6,10817283"
"7,668247042","2,028385661","0,06984126337","-6,296657206","6,615672162"
"7,678201042","1,748944009","-0,04829856774","-6,448889465","6,68201416"
"7,688155042","1,488782089","-0,1170563238","-6,473255398","6,643283054"
"7,698110042","1,224057075","-0,176456872","-6,447461575","6,564999125"
"7,708064042","0,7935435433","-0,08267619409","-6,276860873","6,327363521"
"7,718018042","0,8008117785","0,1040599003","-6,004159014","6,058221969"
"7,727973042","1,169446054","0,2932328217","-5,693187128","5,819447503"
"7,737927041","1,333557371","0,3571824306","-5,045905033","5,231358538"
"7,747881042","1,497775984","0,5785848393","-4,084848483","4,389086515"
"7,757836042","1,867089925","0,4475341185","-3,119077322","3,66264316"
"7,767790042","1,564435266","0,1446191116","-2,389500929","2,859735491"
"7,777745042","0,7441435611","-0,06627438873","-0,9323467219","1,194743631"
"7,787699042","-0,5418244178","-0,4274054441","1,759288611","1,889800394"
"7,797653042","-2,345476219","-0,2886343521","5,145448617","5,662173607"
"7,807608042","-3,377745278","-0,1494342937","8,09200618","8,769951984"
"7,817562042","-3,145260861","-0,1981994145","9,010517805","9,545751935"
"7,827516042","-2,264702051","0,08624979302","8,402906145","8,703168738"
"7,837471042","-0,57592823","0,3737015457","7,239049444","7,271532371"
"7,847425041","0,9694625811","0,3370250317","6,250501624","6,334209826"
"7,857379042","1,452228513","-0,2551403314","6,141995428","6,316499987"
"7,867334042","1,184744271","-0,9425782529","6,602064296","6,773427915"
"7,877288042","0,5907510678","-1,165510001","7,10584227","7,224984066"
"7,887243042","0,2996100875","-0,8676608755","6,810326915","6,871910527"
"7,897197042","0,4077776933","-0,2283240502","5,826625852","5,845338599"
"7,907151042","0,5407215964","0,6487320583","4,506789411","4,585235428"
"7,917106042","0,8722907739","1,505660662","2,765572205","3,267459999"
"7,927060042","0,9953519323","1,996870338","0,6818286145","2,333046694"
"7,937014042","1,007610108","2,148068079","-0,9911211795","2,571341245"
"7,946969042","0,6878065154","2,130636506","-2,179877663","3,124829011"
"7,956923041","0,09009766292","1,687674545","-2,965911847","3,413648494"
"7,966877042","-0,08432942122","1,159187991","-3,729293917","3,906208055"
"7,976832042","-0,03941745115","0,7984324734","-4,361752151","4,434403001"
"7,986786042","-0,05035554511","0,3417445753","-4,689687393","4,702392251"
"7,996741042","0,3225448407","0,02673651234","-4,607192536","4,618546641"
"8,006695042","0,3839906719","0,0681453744","-4,128105015","4,146485697"
"8,016649042","0,6943040876","0,08496221786","-3,357816213","3,4298989"
"8,026604042","1,006062423","0,1458905521","-2,767229306","2,948050828"
"8,036558042","1,049371873","0,06889474533","-2,08347228","2,333834732"
"8,046512042","0,3377036377","-0,26970792","-1,185604835","1,261921128"
"8,056467042","0,1367860354","-0,4196446175","-0,7874345917","0,9026988759"
"8,066421041","-0,8675390341","-0,511585067","-1,070514089","1,46981076"
"8,076375042","-1,550345084","-0,5868511943","-1,648029546","2,337512692"
"8,086330042","-1,152916487","0,1620748411","-2,243959054","2,528010466"
"8,096284042","-0,6430956347","1,11618786","-3,582649257","3,807206723"
"8,106239042","-0,8643625342","1,572565234","-5,538877938","5,822306486"
"8,116193042","-1,483388325","1,339390407","-7,500806485","7,762506393"
"8,126147042","-1,772161841","1,111257195","-7,991338761","8,260565679"
"8,136102042","-1,727806909","0,7401233811","-6,590761043","6,853556045"
"8,146056042","-1,200946613","0,3275953002","-3,994630623","4,184096708"
"8,156010042","-1,633369991","-0,1472742592","-2,353443489","2,868498473"
"8,165965042","-3,003831333","-1,003409761","0,0877357167","3,168206335"
"8,175919042","-4,110459287","-1,222534606","2,315768124","4,873730442"
"8,185873042","-4,481851621","-0,948393382","3,184273776","5,579071916"
"8,195828042","-4,345091094","0,6888062431","2,638235051","5,129771422"
"8,205782042","-3,550066817","2,768028036","1,361559248","4,703062534"
"8,215737042","-2,471460766","3,673757355","2,055985689","4,881771049"
"8,225691042","-1,724872192","2,682270432","5,850805258","6,66345863"
"8,235645042","-1,987981986","0,9673607263","10,18428729","10,42149542"
"8,245600042","-1,86452826","-0,6251248021","12,13356071","12,29188928"
"8,255554042","-1,010768336","-1,299939389","12,31838301","12,42795458"
"8,265508041","-0,8984787717","-1,217016077","10,93326884","11,03742541"
"8,275463042","-0,6183625703","-1,064829426","8,765420651","8,851487625"
"8,285417042","-0,5251342716","-0,4851803201","7,496956678","7,530971078"
"8,295371042","-1,058663464","-0,438324827","6,250900989","6,355049973"
"8,305326042","-2,334249711","-0,7441361059","4,223691788","4,882830386"
"8,315280042","-3,008646807","-0,6085221449","2,083595071","3,709935745"
"8,325235042","-2,511609503","0,008451711684","0,7141327268","2,611175842"
"8,335189042","-1,876977859","0,9362120238","-0,6859409612","2,206819848"
"8,345143042","-0,8953540197","1,851261805","-2,846798801","3,511850297"
"8,355098042","0,4501772427","2,975936313","-5,285219876","6,082138244"
"8,365052042","1,558697393","3,648676308","-6,963998759","8,014964446"
"8,375006041","1,646191766","3,310752267","-6,588508111","7,555095435"
"8,384961042","1,105512744","2,270123005","-5,183939084","5,766180825"
"8,394915042","0,9654637434","1,350076924","-4,090053089","4,413996173"
"8,404869042","1,348179503","0,8397539424","-3,284244207","3,648154968"
"8,414824042","1,546706508","0,5039894607","-3,197363938","3,587400528"
"8,424778042","1,420927344","0,3444408726","-3,845074049","4,113668494"
"8,434733042","1,202369387","0,1938691493","-4,760180256","4,913511316"
"8,444687042","1,24579768","-0,08141436495","-5,032994381","5,185525296"
"8,454641042","1,121349928","-0,2616794188","-4,688899773","4,828217359"
"8,464596042","0,799890769","-0,4414996092","-4,392900268","4,486905383"
"8,474550042","0,5106954131","-0,5868011275","-4,398842209","4,467097284"
"8,484504041","0,3752820847","-0,7402576478","-4,575055654","4,649726042"
"8,494459042","0,2247193149","-0,804387424","-5,03710322","5,105873749"
"8,504413042","0,2596554417","-0,7984457758","-5,853052343","5,912965274"
"8,514367042","0,4313066333","-0,7778574371","-6,745668404","6,804052456"
"8,524322042","1,019042804","-0,5454830937","-7,282164474","7,373324858"
"8,534276417","1,822930875","-0,2086559171","-6,966865064","7,204430795"
"8,544231417","2,115681375","-0,1199816492","-5,844241759","6,216563762"
"8,554185417","2,119967676","-0,7584854655","-3,997854193","4,588289583"
"8,564139417","1,955399692","-1,666180911","-1,508726065","2,979261842"
"8,574094417","1,890915282","-2,173530511","0,9732053107","3,040875542"
"8,584048417","1,846756817","-1,83270742","3,058013679","4,015068479"
"8,594002417","2,599533792","-1,479962441","4,330518664","5,26319833"
"8,603957416","3,368082462","-1,53735184","5,252577794","6,426274476"
"8,613911417","3,190742259","-0,8730454302","6,411050963","7,214195654"
"8,623865417","2,966298348","-0,6868488877","6,935616374","7,574527165"
"8,633820417","2,130412704","-0,4091663705","6,761740646","7,101212007"
"8,643774417","0,5970647451","-0,1134802763","6,86777347","6,894612137"
"8,653729417","-0,8012492234","0,1857387055","7,008447538","7,056545619"
"8,663683417","-1,52695242","0,6869405428","6,409434793","6,624524539"
"8,673637417","-1,798682764","1,098145253","5,207022722","5,617318605"
"8,683592417","-1,896877396","0,9019217585","4,620538806","5,075528107"
"8,693546417","-1,757305528","0,1479541442","5,100147899","5,396436022"
"8,703500417","-1,362337512","-0,5706879553","5,402257159","5,600538426"
"8,713455416","-0,4110538517","-1,092976753","4,910815641","5,047739465"
"8,723409417","0,2203553186","-1,035367645","4,33867436","4,465941987"
"8,733363417","0,3571344835","-0,7247705662","3,636103917","3,724793835"
"8,743318417","0,5300763017","-0,2997480087","2,549474317","2,621192295"
"8,753272417","0,9340242881","0,5060870397","1,623150228","1,939881987"
"8,763227417","1,401319145","1,411749993","1,189965688","2,317919698"
"8,773181417","1,750894787","1,690236941","0,7502848917","2,546656806"
"8,783135417","1,211224922","1,369685854","-0,1123408002","1,83186397"
"8,793090417","0,5187281718","0,9469677577","-1,446646176","1,805162599"
"8,803044417","0,05897571143","0,7411182117","-2,767847357","2,865957663"
"8,812998417","-0,2452538774","0,5070555213","-3,681476557","3,724315293"
"8,822953417","-0,3726474024","0,1921086257","-4,220539554","4,241311818"
"8,832907417","-0,6148074632","0,07105825167","-4,135497649","4,18155214"
"8,842861417","-1,236343171","0,1869725777","-3,588518692","3,800127574"
"8,852816417","-2,151737499","0,231617933","-3,04010015","3,731732848"
"8,862770417","-2,689272765","0,3736903264","-3,105143992","4,124772924"
"8,872725417","-2,930988767","0,5217153315","-3,568522968","4,647282885"
"8,882679417","-3,044731729","0,7231638975","-4,154126878","5,200973702"
"8,892633417","-3,01190166","1,030196148","-4,71874864","5,692050987"
"8,902588417","-2,911663134","1,235042312","-5,4170512","6,272762981"
"8,912542416","-2,168988394","1,379973007","-5,794894767","6,33953007"
"8,922496417","-1,372421913","1,784722099","-5,673566211","6,103943679"
"8,932451417","-0,2967840551","1,978264206","-5,539767299","5,889875361"
"8,942405417","0,7491215882","1,655774036","-5,0721526","5,387903378"
"8,952359417","0,9471752608","1,073614136","-3,913553715","4,167216214"
"8,962314417","0,7678747782","0,0874022975","-1,087648185","1,334259874"
"8,972268417","-0,1688551627","-1,146738319","4,091620728","4,252632246"
"8,982222417","-1,200532922","-2,233007511","8,544885896","8,913062146"
"8,992177417","-1,818567537","-2,973145145","10,7414825","11,29275105"
"9,002131417","-2,436963948","-2,106136672","9,494942665","10,02639223"
"9,012086417","-1,004227275","-0,09459391594","5,561180388","5,651915404"
"9,022040416","0,3739187698","1,944770185","1,965085459","2,789893758"
"9,031994417","-0,333956413","3,447701659","0,2877140003","3,475766528"
"9,041949417","-1,254929423","2,845492826","1,434633656","3,424887006"
"9,051903417","-1,597553164","1,143030965","5,39859154","5,744866101"
"9,061857417","-3,389393809","0,2094623213","8,861947657","9,490309854"
"9,071812417","-4,768740872","-1,072529624","9,695972278","10,85831883"
"9,081766417","-4,982296098","-1,581133452","8,070225887","9,615186075"
"9,091720417","-3,500725088","-0,751706496","4,715760128","5,921024605"
"9,101675417","-0,6236377821","0,415670667","1,968845803","2,106670355"
"9,111629417","1,088672617","1,46198927","1,531076462","2,380507472"
"9,121584417","1,002668553","1,305545115","1,845954872","2,473326032"
"9,131538416","-0,09531674143","0,1140145656","1,377246158","1,385240623"
"9,141492417","-0,9331844817","-0,9014449181","0,8587185824","1,555902896"
"9,151447417","-1,14835734","-1,251492576","0,8130453962","1,883082862"
"9,161401417","-1,150508531","-1,226927692","0,664991557","1,808655637"
"9,171355417","-1,097102475","-1,139148121","-0,2260884404","1,597625822"
"9,181310417","-0,9470135853","-1,074264201","-1,622592403","2,164182157"
"9,191264417","-1,076485339","-1,14193315","-2,892883632","3,291140792"
"9,201218417","-1,238203755","-1,369771224","-3,799588559","4,224487538"
"9,211173417","-1,007344718","-1,696873531","-4,657927657","5,05869679"
"9,221127417","-0,1143575414","-1,591285387","-5,838963477","6,052996061"
"9,231081417","1,512631128","-1,249216694","-6,801908094","7,079163015"
"9,241036416","2,356326605","-0,5215849386","-7,093250291","7,492564689"
"9,250990417","1,985615764","-0,07092248663","-7,230325983","7,498354072"
"9,260945417","1,167992582","-0,5035739064","-7,469433249","7,576953637"
"9,270899417","0,3757521643","-1,008515477","-7,811362048","7,885155053"
"9,280853417","0,07168668574","-1,0517226","-8,129396785","8,197460064"
"9,290808417","0,0992840407","-0,9381994924","-8,293331662","8,346821291"
"9,300762417","0,4107116799","-0,795587803","-8,326079578","8,374081752"
"9,310716417","0,8918739762","-0,5549957827","-8,122300605","8,18994668"
"9,320671417","1,555370766","-0,8656624433","-8,158917038","8,3508369"
"9,330625417","2,294539954","-0,9571067566","-7,680845763","8,073187634"
"9,340579417","2,822575833","-0,5415876786","-7,035435947","7,599842795"
"9,350534417","3,26090066","-0,2080056337","-6,426671215","7,209635384"
"9,360488417","3,300500636","-0,2578983168","-5,622621176","6,52485133"
"9,370443417","2,786712813","-0,8001794752","-4,335014588","5,215209197"
"9,380397417","2,546750392","-1,538999585","-1,814537782","3,48525532"
"9,390351417","2,136630341","-1,735576836","1,343939833","3,06326467"
"9,400306417","1,339523139","-0,869963509","3,478769377","3,827923083"
"9,410260417","1,781652749","-0,05545148492","3,96857426","4,350510665"
"9,420214417","1,712124385","0,9240930846","3,364094954","3,886187437"
"9,430169417","1,602549902","1,187517459","3,004232159","3,606074704"
"9,440123416","1,122481657","0,373845972","4,038530933","4,208260683"
"9,450077417","-0,1094268402","-0,301146078","5,584146497","5,593331323"
"9,460032417","-1,471001583","-0,6504121095","7,142544073","7,321394499"
"9,469986417","-2,884646659","-0,7744632746","8,199414269","8,726475467"
"9,479940417","-3,629072056","-0,8272431667","8,491159925","9,271153764"
"9,489895417","-3,278827347","-0,7087923916","8,790322773","9,408659303"
"9,499849417","-1,724653506","-0,2240202802","9,389095198","9,548807435"
"9,509804417","-0,4397372584","0,2077982037","10,22570897","10,23726882"
"9,519758417","0,09347276716","0,6487639987","10,58633248","10,60660489"
"9,529712417","0,4219503573","1,098270164","9,510933046","9,58342772"
"9,539667667","0,6127255986","1,595123354","7,785517355","7,970830048"
"9,549621667","0,5872190938","1,686750685","5,762133402","6,032589451"
"9,559575667","0,7565590272","1,730565041","3,5797964","4,04749048"
"9,569530667","0,9100766509","1,91968066","1,714910583","2,730262195"
"9,579484667","0,7846874966","1,861021392","0,2547684485","2,035692033"
"9,589438667","0,443352263","1,582168263","-0,8756293148","1,861865821"
"9,599393666","-0,3083681933","1,145710963","-1,581513374","1,977101188"
"9,609347667","-0,9928885735","0,6092935389","-2,28849905","2,567935793"
"9,619302667","-1,55663011","0,1430984701","-3,19828429","3,559859108"
"9,629256667","-1,850432523","-0,3203714307","-4,175442318","4,578324686"
"9,639210667","-1,969543961","-0,706924791","-5,108548594","5,520517621"
"9,649165667","-1,709734335","-1,014833101","-5,827855521","6,157676323"
"9,659119667","-0,8561933161","-1,202123803","-6,148330302","6,32298459"
"9,669073667","-0,299486492","-1,332062969","-5,900996588","6,05688407"
"9,679028667","-0,3724689527","-1,662508421","-5,562271478","5,817347451"
"9,688982667","-0,5097657789","-2,050469425","-5,48581504","5,878643778"
"9,698936667","-0,3280252898","-2,22789149","-5,399213684","5,850009357"
"9,708891666","0,299094893","-1,831925355","-5,358855616","5,671220484"
"9,718845667","1,634000906","-1,11006334","-5,310664034","5,666158493"
"9,728799667","1,106132549","0,1318729855","-5,864495929","5,969357771"
"9,738754667","-0,1070896351","0,7047361781","-7,362820382","7,397245788"
"9,748708667","-1,373708446","0,9301619828","-8,490052462","8,650622349"
"9,758663667","-2,183322697","0,9965807978","-7,255783006","7,642411813"
"9,768617667","-2,452269912","0,5830244109","-2,692773201","3,688437704"
"9,778571667","-2,586260905","0,3430242019","2,455781457","3,582914127"
"9,788526667","-2,795962816","0,5617840346","6,014955313","6,656778259"
"9,798480667","-3,118704854","1,098446019","7,266388686","7,983314359"
"9,808434667","-3,432809678","2,683838655","6,422964665","7,761549285"
"9,818389666","-2,916016386","4,850522076","4,615737072","7,303132526"
"9,828343667","-2,764686352","6,080489151","3,168923666","7,393099225"
"9,838297667","-3,403502556","6,290908808","3,414742951","7,925896334"
"9,848252667","-3,676650265","4,701742013","5,996821343","8,4608511"
"9,858206667","-4,634437637","1,462613752","9,270465133","10,46703277"
"9,868160667","-5,659862092","-1,272350325","10,39458123","11,90379071"
"9,878115667","-6,312487957","-2,95830842","9,45696383","11,74875559"
"9,888069667","-5,763918557","-3,673513818","8,113659005","10,60890774"
"9,898024667","-4,147520109","-3,696844209","7,954271507","9,702526237"
"9,907978666","-2,826137373","-3,095886388","9,527990543","10,40933085"
"9,917932667","-1,820303137","-2,468618142","9,982799256","10,4433644"
"9,927887667","-1,953960546","-2,196092723","8,263807901","8,771049315"
"9,937841667","-1,990308447","-1,922167042","5,00581243","5,719633899"
"9,947795667","-1,321745849","-1,098834786","1,668024099","2,395152265"
"9,957750667","0,01018584967","-0,0726120396","-0,8533753967","0,8565196014"
"9,967704667","0,8366462204","0,8486686805","-2,439350781","2,714893674"
"9,977658667","1,501888769","1,19767071","-3,438549889","3,938744768"
"9,987613667","2,004877808","1,241605958","-3,951295738","4,6015061"
"9,997567667","2,014641342","0,6496834002","-3,984904949","4,512242869"
"10,00752167","1,460642071","-0,4387573747","-3,7346219","4,034028263"
"10,01747667","1,079324308","-1,434576353","-3,662264945","4,078619227"
"10,02743067","1,079835355","-2,061255199","-3,513143404","4,213904836"
"10,03738567","1,542042622","-2,236194975","-3,065978757","4,096179824"
"10,04733967","2,088278106","-1,997786305","-3,069939076","4,21622835"
"10,05729367","2,65505252","-1,867980748","-3,851126502","5,036847357"
"10,06724867","2,990611947","-1,624553559","-4,870908394","5,942110961"
"10,07720267","2,963080625","-1,481176177","-5,751603152","6,637369093"
"10,08715667","2,696500216","-1,712503138","-6,512639903","7,253844424"
"10,09711167","2,399607841","-1,80128653","-7,153564906","7,757334711"
"10,10706567","2,436186415","-1,698187254","-8,105436065","8,632319387"
"10,11701967","2,746664356","-1,573461758","-9,184426863","9,714609811"
"10,12697467","2,6550227","-1,459388721","-9,768499387","10,22753838"
"10,13692867","2,60917819","-1,545765837","-9,714134315","10,17652241"
"10,14688267","2,549547408","-1,618329198","-9,224613606","9,706321526"
"10,15683767","2,052150207","-1,885927169","-8,756694267","9,189544942"
"10,16679167","1,606553929","-2,323192334","-7,778338729","8,275312171"
"10,17674667","0,6451667185","-2,613836959","-5,460156289","6,087831341"
"10,18670067","-0,7591549717","-2,433202142","-2,213654689","3,375952609"
"10,19665467","-1,092717575","-2,161552928","0,3415996009","2,446023926"
"10,20660967","-0,5078097756","-2,092701233","1,408298382","2,573047522"
"10,21656367","-0,1396962677","-1,222659079","1,876016577","2,243623958"
"10,22651767","0,3955948368","-0,5347584231","3,61774483","3,678388166"
"10,23647267","0,8321437182","-0,1953196608","6,899884039","6,952626316"
"10,24642667","0,857981687","0,1413317339","10,17312846","10,21022282"
"10,25638067","0,3618575719","0,3780700006","12,03147066","12,04284701"
"10,26633567","-0,1184599844","0,4059993723","11,84505675","11,85260468"
"10,27628967","-0,1769192771","-0,07225185111","11,31879214","11,3204053"
"10,28624367","0,06464045741","-0,5436967693","11,8815118","11,8941207"
"10,29619867","1,251629547","-0,8887147987","12,9343135","13,02508566"
"10,30615267","2,282837922","-0,4249120452","13,98374019","14,17522095"
"10,31610767","2,417876736","0,2721928588","13,08107277","13,30543805"
"10,32606167","1,471726638","0,697150366","9,946148908","10,07858502"
"10,33601567","0,5669406941","1,032393459","6,331627648","6,440245856"
"10,34597067","0,2344966634","1,402183217","2,90232747","3,231812371"
"10,35592467","0,05694888376","1,739424742","-0,0311487025","1,740635473"
"10,36587867","-0,4707630598","1,725848823","-2,088094504","2,749601912"
"10,37583367","-1,035921742","1,618057888","-3,462373785","3,959706733"
"10,38578767","-1,236433657","1,642141546","-4,252653632","4,723394961"
"10,39574167","-0,8560548102","1,527742964","-4,386689941","4,723333255"
"10,40569667","-0,2851350859","1,261866852","-4,485615474","4,668442583"
"10,41565067","0,5870680529","0,9873352535","-4,799199895","4,934754243"
"10,42560467","1,371689549","0,7981578004","-4,834515908","5,088332945"
"10,43555967","1,525795403","0,3475131825","-4,448378066","4,715600114"
"10,44551367","1,196005862","-0,2013653894","-3,92968209","4,112587917"
"10,45546867","0,7611201478","-0,5632975133","-3,962815922","4,074373326"
"10,46542267","0,5799396392","-0,7839166144","-4,889897811","4,986176476"
"10,47537667","0,3759273615","-0,9719050361","-5,837146747","5,929435296"
"10,48533167","0,3847549029","-0,9991105226","-6,634732105","6,720560116"
"10,49528567","0,7805880138","-0,7561527188","-7,47244515","7,551060926"
"10,50523967","0,8766223913","-0,5267991932","-8,040851229","8,105632159"
"10,51519467","0,5651868217","-0,3789849436","-8,338097945","8,365819929"
"10,52514867","0,3876532947","0,01377297029","-8,858397228","8,866885937"
"10,53510242","0,4094719606","0,4413096844","-9,115716816","9,135574125"
"10,54505742","0,1509164167","0,9161699612","-8,616786184","8,666668754"
"10,55501142","-0,3695539695","1,181445564","-7,806201296","7,90374357"
"10,56496542","-1,066330845","1,072731353","-7,477087839","7,628542232"
"10,57492042","-1,500234007","0,6306992452","-6,899499877","7,088835036"
"10,58487442","-1,28001544","-0,1162009858","-4,988074901","5,151003147"
"10,59482942","-1,250981822","-1,240625818","-1,371881338","2,232972536"
"10,60478342","-1,607788569","-2,203457876","3,105250996","4,133133731"
"10,61473742","-2,305643671","-2,727796853","6,927082947","7,793673496"
"10,62469242","-4,149584761","-2,427014618","8,669842064","9,913405826"
"10,63464642","-5,475656673","-0,759553898","6,88410065","8,82896256"
"10,64460042","-4,835187169","0,5725808452","4,481557506","6,617495105"
"10,65455542","-4,040902564","1,684649634","4,254107249","6,104454637"
"10,66450942","-3,541837153","2,177866221","5,17220723","6,636221766"
"10,67446342","-2,491787442","2,333039045","6,793761168","7,603109012"
"10,68441842","-1,016103335","1,741204342","8,375504338","8,614715983"
"10,69437242","-0,5440872902","1,476267586","8,587309785","8,730251217"
"10,70432642","-0,756354667","0,9843544891","6,380004002","6,499652084"
"10,71428142","-0,8201515174","0,4956947833","4,400270099","4,503414124"
"10,72423542","-0,4234745072","0,04592081577","4,65113787","4,670601981"
"10,73419042","-0,1288618156","-0,5283181536","6,962201909","6,98340754"
"10,74414442","-0,1375294358","-1,268864215","9,089273368","9,178443283"
"10,75409842","-0,5086186648","-1,98649577","9,654200354","9,869571565"
"10,76405342","-1,309163664","-2,076259008","7,967019607","8,336555787"
"10,77400742","-1,628170062","-1,588861863","5,024981942","5,515964402"
"10,78396142","-1,537293514","-1,033816086","2,408143022","3,03828897"
"10,79391642","-1,472562059","-0,4544507168","0,74193039","1,710387434"
"10,80387042","-1,173741346","0,09787157267","-0,4581387019","1,263779515"
"10,81382442","-0,649387458","0,7084088874","-1,62830104","1,890743637"
"10,82377942","-0,329610543","0,8837996292","-2,606596937","2,772019568"
"10,83373342","-0,2660131558","0,4934129074","-3,236543207","3,284726963"
"10,84368742","0,2054944738","0,1728245451","-3,315236789","3,326092493"
"10,85364242","0,8934860536","-0,1461973482","-3,344187523","3,464575181"
"10,86359642","1,570374429","-0,5048139547","-3,417378291","3,794652469"
"10,87355142","1,963018176","-0,8975471641","-3,718064339","4,299189889"
"10,88350542","1,854331008","-1,384751059","-4,231180902","4,82275552"
"10,89345942","1,950048028","-1,908280636","-4,767107452","5,492680198"
"10,90341442","2,144322499","-2,240625995","-5,455359233","6,275306223"
"10,91336842","2,348147666","-2,444027531","-6,110903444","6,987861542"
"10,92332242","2,416486999","-2,872011411","-6,419036506","7,435851573"
"10,93327742","2,20709996","-3,436240824","-6,608517868","7,768625982"
"10,94323142","1,747838155","-3,776284188","-7,084924441","8,216533017"
"10,95318542","1,436684421","-4,198612787","-7,702946484","8,889757927"
"10,96314042","1,207002136","-4,406477503","-8,169809816","9,360539011"
"10,97309442","1,701040256","-4,500294324","-8,645728147","9,894180216"
"10,98304842","2,342908561","-4,74847413","-8,247635672","9,80105715"
"10,99300342","2,544137564","-4,81965024","-6,453982975","8,447222065"
"11,00295742","2,937611323","-4,889221581","-3,771437724","6,837966836"
"11,01291142","2,515394406","-4,745416913","-0,05948606372","5,371194401"
"11,02286642","1,66946076","-4,727918536","3,831099789","6,310121909"
"11,03282042","1,293737686","-5,648419676","5,969144132","8,319199703"
"11,04277542","0,2518704222","-5,731282908","4,90263831","7,546317305"
"11,05272942","0,3229751958","-5,242311838","2,728005599","5,918459337"
"11,06268342","1,32807049","-4,689122552","2,853200918","5,647335391"
"11,07263842","2,101136865","-4,627979388","5,758429776","7,680656405"
"11,08259242","1,526190236","-6,075497968","9,78540895","11,61874178"
"11,09254642","0,5851647842","-7,330715075","13,5273159","15,39708013"
"11,10250142","0,485278261","-7,028118156","14,96803007","16,54303068"
"11,11245542","1,06885728","-5,68255689","13,19851994","14,4095398"
"11,12240942","1,288250513","-4,335148489","8,943346746","10,02180387"
"11,13236442","1,2373907","-3,265526685","5,047216564","6,137523549"
"11,14231842","0,9170762797","-2,371040392","2,397539096","3,494432023"
"11,15227242","0,3964662181","-1,73412161","1,303025111","2,205048222"
"11,16222742","0,1299681088","-1,074430846","1,068486859","1,520841057"
"11,17218142","-0,04528639287","-0,6677236685","0,7697333157","1,019997614"
"11,18213542","-0,3966666314","-0,5095404053","0,3143001205","0,7181646098"
"11,19209042","-0,5280588296","-0,4901636097","-0,0588674283","0,7228913237"
"11,20204442","-0,5383366998","-0,4702260661","-0,5582219839","0,9069348041"
"11,21199942","-0,4363255177","-0,4550309068","-1,241283776","1,392199158"
"11,22195342","-0,4660675263","-0,2189960602","-1,739032102","1,813673307"
"11,23190742","-0,2171042667","0,2156649014","-2,203870543","2,225014828"
"11,24186242","0,07026357852","0,6546156728","-2,844022543","2,919233269"
"11,25181642","0,03073461","0,8206685574","-3,710201588","3,800004911"
"11,26177042","-0,08105340902","0,5724565919","-4,432701681","4,470248359"
"11,27172542","-0,5816822922","0,2915768172","-5,083986195","5,125454805"
"11,28167942","-0,9377065721","-0,1139803594","-5,420790494","5,502477144"
"11,29163342","-1,408191231","-0,3257324503","-4,746189623","4,961392961"
"11,30158842","-1,366861065","-0,2823247679","-2,816255286","3,143137012"
"11,31154242","-1,109737577","-0,243214058","-0,8722332519","1,432292363"
"11,32149642","-1,595471555","-0,3039632665","0,1751486671","1,633585078"
"11,33145142","-2,154803925","-0,7885594498","0,04672977805","2,295035868"
"11,34140542","-2,434966978","-1,36186535","-0,4822859484","2,831314385"
"11,35136042","-2,410505297","-1,598983539","-0,6346456772","2,961428588"
"11,36131442","-2,293376797","-2,006482138","-0,03877113283","3,047466309"
"11,37126842","-2,643746929","-2,922206833","0,9390148866","4,050980074"
"11,38122342","-2,889573815","-4,04032369","1,931613657","5,329632602"
"11,39117742","-3,15587882","-4,639056645","2,828816274","6,283519651"
"11,40113142","-3,16798051","-4,452375807","3,82414511","6,669620429"
"11,41108642","-1,861761357","-4,233080077","5,695648221","7,336588509"
"11,42104042","-0,9412390944","-4,48284097","8,231393861","9,420065769"
"11,43099442","-0,4949306984","-5,213199136","10,57700734","11,80235087"
"11,44094942","-0,1071207349","-5,409546883","11,92331939","13,09351815"
"11,45090342","-0,1293011243","-5,052887194","11,73112141","12,77370727"
"11,46085742","-0,4401588061","-4,180370936","10,69102103","11,48769653"
"11,47081242","-0,2253009667","-3,010743326","9,450025524","9,920600703"
"11,48076642","-0,4198249675","-2,359593152","8,225369475","8,567417105"
"11,49072042","-0,7278169656","-2,692507153","7,293664193","7,808767486"
"11,50067542","-0,8467094247","-3,201683276","6,309119377","7,125495068"
"11,51062942","-0,7268086863","-3,475829397","5,307680785","6,38600941"
"11,52058342","-0,396067036","-3,375457263","4,604019252","5,722549616"
"11,53053842","-0,02260292374","-3,039434736","4,268708332","5,240281026"
"11,54049254","0,3234376375","-2,496806107","3,565429206","4,36473803"
"11,55044754","0,2880712652","-2,042911607","2,320036592","3,104680769"
"11,56040154","-0,009117051736","-1,767405131","1,118916755","2,091836208"
"11,57035554","-0,4337802248","-1,511734896","0,5231229025","1,657457465"
"11,58031054","-0,9243013186","-1,381862096","0,249662075","1,681132634"
"11,59026454","-0,7880637521","-1,077354016","0,2582902265","1,359577138"
"11,60021854","-0,6542305606","-0,745635332","0,2537966412","1,023915236"
"11,61017354","-0,5716604935","-0,7269110857","0,03172816157","0,9253119055"
"11,62012754","-0,7159893639","-0,8835267104","-0,1000446904","1,141608145"
"11,63008154","-0,959850124","-1,076186911","-0,2617739975","1,465611188"
"11,64003654","-0,9138703244","-1,022305404","-0,568682068","1,484475194"
"11,64999054","-0,7708791507","-1,064468799","-0,4073141187","1,375955406"
"11,65994454","-0,6077587178","-1,393511504","0,345694406","1,55908614"
"11,66989954","-0,7089133559","-1,453129276","1,250325326","2,043882643"
"11,67985354","-0,6336433183","-1,742593641","1,575890692","2,433427197"
"11,68980754","-0,4268818259","-1,722424401","1,442322745","2,286759456"
"11,69976254","-0,1504623804","-1,557686702","0,4929196948","1,640730512"
"11,70971654","0,25028685","-1,260529886","-1,01991053","1,640669556"
"11,71967154","0,7472744527","-0,8487354849","-2,379258946","2,634320437"
"11,72962554","1,325390126","-0,5509613501","-3,330927792","3,627023208"
"11,73957954","1,555582727","-0,5237443154","-3,472152668","3,840571556"
"11,74953454","1,503734881","-0,7994931583","-2,978270522","3,430816696"
"11,75948854","1,248583879","-1,204178954","-2,361162983","2,929863356"
"11,76944254","0,78254113","-1,754105785","-1,891587127","2,69580407"
"11,77939754","0,3002986702","-2,088250625","-1,882583585","2,82755918"
"11,78935154","0,3151991299","-2,107902824","-2,185595071","3,05277425"
"11,79930554","0,5851354019","-2,020807231","-2,398324962","3,190299034"
"11,80926054","0,9562670233","-1,811608473","-2,103349305","2,936060316"
"11,81921454","1,093328316","-1,88031238","-1,392438394","2,582600653"
"11,82916854","1,121160478","-2,367867401","-0,4083315343","2,651514942"
"11,83912354","1,21370436","-2,736900676","0,8563919753","3,114018432"
"11,84907754","1,474729914","-2,69106406","1,725266587","3,520397547"
"11,85903154","2,063860134","-2,413589703","1,436535755","3,485479721"
"11,86898654","2,474033249","-2,467914722","-0,2020534605","3,500324155"
"11,87894054","2,19786136","-2,637869892","-1,746815915","3,852313327"
"11,88889554","1,428310185","-2,805266029","-1,977655803","3,717621545"
"11,89884954","0,5119111589","-3,034519859","-1,141121557","3,282152071"
"11,90880354","-0,492831548","-3,258540139","-0,2091964191","3,302231051"
"11,91875854","-1,224788781","-3,532523708","0,4048465937","3,760682394"
"11,92871254","-1,786876067","-3,905099519","0,8105948281","4,370330915"
"11,93866654","-1,805308829","-4,281044202","1,256802871","4,813110521"
"11,94862154","-1,016074465","-4,228040362","1,419829676","4,574346831"
"11,95857554","-0,1616932006","-4,043256653","1,512965296","4,320084842"
"11,96852954","0,2299106191","-3,991667839","1,720750782","4,35284439"
"11,97848454","0,3322207401","-3,856650074","1,846582278","4,288821111"
"11,98843854","0,6537774014","-3,684851277","1,91810542","4,205315949"
"11,99839254","0,8362533606","-3,467495069","1,822740256","4,005648983"
"12,00834754","0,9663066926","-3,33561112","1,357983091","3,728829339"
"12,01830154","0,8736000386","-3,047583124","0,9024797291","3,296272074"
"12,02825554","0,6370330954","-2,903332314","0,4377664179","3,004461537"
"12,03821054","0,526107833","-2,653443367","-0,04751622856","2,705514543"
"12,04816454","0,3212111639","-2,203533451","-0,7127171159","2,338097938"
"12,05811854","-0,07422024317","-1,992795998","-1,532495581","2,515012374"
"12,06807354","-0,2886752095","-1,837754152","-2,107712497","2,811249841"
"12,07802754","-0,4432367074","-1,715044192","-1,980858908","2,65737415"
"12,08798254","-0,5604252879","-1,661518195","-1,570752743","2,354141754"
"12,09793654","-0,7085416192","-1,740062089","-1,086345425","2,170251986"
"12,10789054","-0,9738096935","-1,984451437","-0,2253826815","2,221969887"
"12,11784554","-1,045804852","-2,207083004","0,4231828773","2,478710738"
"12,12779954","-0,7641170651","-2,271010612","0,426236878","2,433730052"
"12,13775354","0,04986165639","-2,18213235","0,4886874801","2,236739419"
"12,14770854","0,5834480782","-2,176193333","0,7202249408","2,365365309"
"12,15766254","1,242770723","-2,028962197","0,945267899","2,560214457"
"12,16761654","1,080162141","-1,98970019","0,989859935","2,470926909"
"12,17757154","0,8958386077","-2,111745029","0,5709864557","2,363899197"
"12,18752554","0,6400580062","-1,925441337","0,3337076139","2,056297489"
"12,19747954","0,4608780494","-2,038019826","0,1041476816","2,092075555"
"12,20743454","0,3431881432","-1,930744177","-0,02012728572","1,961110982"
"12,21738854","0,2353061739","-1,872744767","-0,5050035506","1,953860421"
"12,22734254","0,06533218302","-1,934291098","-0,9949932057","2,176180559"
"12,23729754","0,09049618721","-1,818926702","-1,219905186","2,191997393"
"12,24725154","0,2009478616","-1,695779078","-1,605475849","2,343842876"
"12,25720554","0,3689320816","-1,575762053","-1,872484859","2,474941711"
"12,26716054","0,534564661","-1,352399585","-1,752066715","2,276945714"
"12,27711454","0,5141815231","-1,313335799","-1,581887012","2,119339538"
"12,28706954","0,4441288463","-1,254978832","-1,505011913","2,009299171"
"12,29702354","0,4255200825","-1,143775316","-1,488885292","1,92511525"
"12,30697754","0,5040967937","-1,064542912","-1,514399618","1,918533657"
"12,31693254","0,6114331447","-0,9142481276","-1,56788293","1,915191116"
"12,32688654","0,8589025504","-0,7751449138","-1,582616159","1,960417592"
"12,33684054","0,8094743554","-0,7230658105","-1,447053727","1,808877383"
"12,34679554","0,6523088001","-0,79904073","-1,085991084","1,497781524"
"12,35674954","0,6468136599","-0,8067178318","-0,6668153036","1,230367514"
"12,36670354","0,5472223115","-0,9628756195","-0,4094226247","1,180766108"
"12,37665854","0,4273860386","-1,021103655","-0,1437058496","1,11622707"
"12,38661254","0,2781072443","-1,066146511","-0,1022303796","1,106554596"
"12,39656654","0,2320975143","-1,065002503","-0,1269062144","1,097362645"
"12,40652154","0,2096659505","-0,9704685214","-0,2422992611","1,021997013"
"12,41647554","0,1958371028","-0,9309331575","-0,3644002336","1,018713034"
"12,42642954","0,3800980708","-0,8469610012","-0,4036789048","1,012311286"
"12,43638454","0,3171868543","-0,7955247992","-0,297242623","0,9065430953"
"12,44633854","0,1340177442","-0,9229227644","-0,2874502909","0,9758969488"
"12,45629254","-0,004096413106","-0,974735527","-0,3956606179","1,051985481"
"12,46624754","-0,03002819326","-0,9761198553","-0,6291077793","1,161674766"
"12,47620154","-0,03050923638","-0,9712502941","-0,8624128532","1,299235882"
"12,48615654","-0,05039024469","-0,9858715492","-0,903494221","1,338201665"
"12,49611054","0,03455306109","-1,027090911","-0,706494509","1,247094281"
"12,50606454","-0,06274087977","-1,08111626","-0,4646712112","1,178417634"
"12,51601954","-0,1176027095","-1,224584713","-0,3116910928","1,26909001"
"12,52597354","-0,196814538","-1,22024988","-0,2146530408","1,25452049"
"12,53592742","-0,3373130802","-1,091296555","-0,2563670772","1,170654673"
"12,54588242","-0,354675912","-0,974677932","-0,2403720188","1,064692811"
"12,55583642","-0,3728825336","-0,7925225464","-0,2033936423","0,899167584"
"12,56579042","-0,2330674943","-0,6079943606","0,02994417608","0,6518237899"
"12,57574542","0,007290637381","-0,4656088123","0,4346229547","0,6369786749"
"12,58569942","0,1900269073","-0,3373802501","0,6423102075","0,7499987075"
"12,59565342","0,2020641682","-0,2841223481","0,6233272219","0,7142074365"
"12,60560842","0,1475127159","-0,3239556277","0,6888821107","0,7754133172"
"12,61556242","0,2568018177","-0,1779626396","0,8080074352","0,8663105044"
"12,62551642","0,4347029154","-0,02328565925","0,6919121379","0,8174663621"
"12,63547142","0,4356329881","0,03238597333","0,4854627407","0,6530689276"
"12,64542542","0,3987858816","0,1453816617","0,2963316268","0,5176663404"
"12,65537942","0,2853943368","0,1293257922","0,06535491407","0,3200724181"
"12,66533442","0,1832769547","0,08137862384","0,0246764195","0,2020441739"
"12,67528842","0,2220064992","0,1290951195","0,08658556938","0,2710156755"
"12,68524342","0,2526667399","0,1186481917","0,2181058216","0,3542428888"
"12,69519742","0,2148030218","0,0972459206","0,2629229754","0,3531651147"
"12,70515142","0,1395207781","-0,007386787534","0,1946503007","0,2396024869"
"12,71510642","0,2277043916","-0,08235832483","0,3712999481","0,4432785073"
"12,72506042","0,1744697323","-0,183469255","0,6735214752","0,7195358452"
"12,73501442","0,0305538214","-0,3158189347","0,7853214079","0,8469975497"
"12,74496942","-0,02477574907","-0,3267467961","0,6327090794","0,7125293577"
"12,75492342","-0,09300157294","-0,2912600443","0,4381874174","0,5343125665"
"12,76487742","-0,134678845","-0,1702758899","0,1502500534","0,2640214926"
"12,77483242","-0,1809629922","-0,07930461645","-0,1963506711","0,2785505569"
"12,78478642","-0,07576493137","0,02993335873","-0,4268566829","0,43456065"
"12,79474042","0,1384523457","0,2028749943","-0,5597960544","0,6113091998"
"12,80469542","0,2473251622","0,2818211764","-0,5361621934","0,6542650908"
"12,81464942","0,1694686818","0,293805922","-0,4331740147","0,5501647761"
"12,82460342","0,04483827688","0,2027323222","-0,3087452656","0,3720678763"
"12,83455842","-0,07785472624","0,1147951689","-0,07418304026","0,1572972113"
"12,84451242","-0,1421971218","0,06500700474","0,2071510631","0,2595332253"
"12,85446642","-0,04164715894","0,05735416889","0,2684901094","0,2776885403"
"12,86442142","0,1358955775","0,08283253402","0,1798311174","0,2401417653"
"12,87437542","0,1257015418","0,01743405819","0,1312764233","0,1825878509"
"12,88432942","0,05516124375","-0,02704337239","0,03483244836","0,0706215708"
"12,89428442","0,08311992466","-0,003820570707","-0,1352455133","0,1587919"
"12,90423842","0,09747140385","-0,004374886751","-0,19477777","0,2178490163"
"12,91419242","0,04156559028","-0,0004443883896","-0,1237171429","0,1305137052"
"12,92414742","-0,03052305043","-0,0263671419","-0,120359087","0,1269377509"
"12,93410142","-0,05973215841","-0,02414022982","-0,2615722686","0,2693895565"
"12,94405542","-0,128581734","-0,08583390981","-0,301503489","0,3388289779"
"12,95401042","-0,214531638","-0,1207031956","-0,1893679261","0,3105693104"
"12,96396442","-0,270782218","-0,1638784513","-0,1549728495","0,3524141604"
"12,97391942","-0,3338231695","-0,2695990339","0,01976826668","0,4295489867"
"12,98387342","-0,4099824225","-0,3518874845","0,3863308007","0,6642001777"
"12,99382742","-0,3717259908","-0,2971177849","0,552247299","0,7289967555"
"13,00378242","-0,233254861","-0,2317552695","0,3865313601","0,5074690409"
"13,01373642","-0,2609499787","-0,1451144439","0,2034445131","0,3613070206"
"13,02369042","-0,2450622167","-0,04043115735","0,003745726347","0,2484032991"
"13,03364542","-0,1973192623","0,02786987633","-0,1948146075","0,2786832478"
"13,04359942","-0,1451633412","0,0535014385","-0,1829307264","0,2395797367"
"13,05355342","-0,1275958204","0,1214893538","-0,006975143552","0,1763207562"
"13,06350842","-0,1385454626","0,1331340837","0,04067147791","0,1964018803"
"13,07346242","-0,08118939333","0,1428895783","-0,05596136212","0,1736111265"
"13,08341642","0,02772435375","0,1788517088","-0,1464172035","0,2327972745"
"13,09337142","-0,002905554548","0,1083404276","-0,1011901599","0,1482752136"
"13,10332542","0,005981701612","0,04894002557","0,03621648431","0,06117630744"
"13,11327942","0,07971392155","0,02396364391","0,1668374348","0,1864491758"
"13,12323442","0,02534899548","-0,04059809536","0,2287150097","0,2336692803"
"13,13318842","-0,05993118301","-0,07532237023","0,1316553229","0,1630899451"
"13,14314242","-0,1032004327","-0,07046157986","-0,08591664791","0,1516470703"
"13,15309742","-0,1328317827","-0,07800682694","-0,2745577651","0,3148194942"
"13,16305142","-0,1168516347","-0,07960428625","-0,3277721053","0,3569673654"
"13,17300642","-0,09224932864","-0,05529010177","-0,3569081962","0,3727605056"
"13,18296042","-0,05504539579","-0,02829526126","-0,5188006407","0,5224793988"
"13,19291442","-0,05561389133","-0,03115776569","-0,6991498214","0,7020499869"
"13,20286942","-0,1339961826","-0,05253284723","-0,5614800525","0,5796330963"
"13,21282342","-0,2668504771","-0,08455570847","-0,2868702471","0,4008158974"
"13,22277742","-0,2576196239","-0,06205416083","-0,2255586827","0,3479875125"
"13,23273242","-0,1134883162","-0,0185380125","-0,1743943763","0,2088938829"
"13,24268642","-0,07728425726","-0,02675539702","0,08153591394","0,1154851201"
"13,25264042","-0,1119246246","-0,06765433162","0,1939287543","0,2339072293"
"13,26259542","-0,1357618225","-0,09986430377","0,01817840874","0,1695128495"
"13,27254942","-0,2078626692","-0,1200521082","-0,1412225372","0,2785017108"
"13,28250342","-0,2737143774","-0,0804568103","-0,2757231152","0,3967569722"
"13,29245842","-0,2340065937","-0,0545264554","-0,3645598626","0,436618957"
"13,30241242","-0,33042813","-0,1036000898","-0,290092063","0,4517401163"
"13,31236642","-0,4270460596","-0,1861703762","-0,1260916972","0,4826249705"
"13,32232142","-0,4356384699","-0,2213662291","-0,02952376127","0,4895462555"
"13,33227542","-0,3713766928","-0,2527499896","0,09831216037","0,4598570279"
"13,34222942","-0,2277352356","-0,2157268819","0,1519170946","0,3485401394"
"13,35218442","-0,04142335676","-0,1994412169","0,0561180675","0,211286372"
"13,36213842","-0,02943605304","-0,177582863","0,0620506525","0,1904007298"
"13,37209242","-0,1272091001","-0,2285293606","0,2411970609","0,3557862364"
"13,38204742","-0,1222785086","-0,2074688593","0,3924914271","0,460483313"
"13,39200142","-0,1062967526","-0,1486789066","0,306459589","0,3568219396"
"13,40195542","-0,07441956013","-0,09608787954","0,06905269325","0,1397834968"
"13,41191042","0,01408089928","-0,01816729903","-0,1504365796","0,1521824134"
"13,42186442","0,1084155643","-0,00602935642","-0,2609360915","0,2826268416"
"13,43181842","0,1395160273","-0,02495971709","-0,1806245846","0,2295930092"
"13,44177342","0,1016564754","-0,05517754287","-0,06485439241","0,1326072865"
"13,45172742","-0,0312307097","-0,1556929341","-0,02802102685","0,1612477129"
"13,46168142","-0,14015352","-0,2181172237","-0,06403402805","0,2670552175"
"13,47163642","-0,1597266358","-0,2716514066","-0,06090693712","0,3209622094"
"13,48159042","0,008383737803","-0,2104214108","0,02010565102","0,2115459628"
"13,49154542","0,131444677","-0,1719490707","0,1125284958","0,2439402558"
"13,50149942","0,03672095284","-0,2235867092","0,1437643218","0,2683423655"
"13,51145342","-0,02909779161","-0,2615518034","0,08543425262","0,2766858125"
"13,52140842","-0,05177373245","-0,2816089225","0,02852330267","0,287745866"
"13,53136242","-0,004760656804","-0,2656562564","0,006700324416","0,2657833794"
"13,54131642","0,09588644296","-0,2159581393","-0,002419577837","0,2363006183"
"13,55127142","0,1143317771","-0,1674975854","-0,1253397453","0,2384056378"
"13,56122542","0,06695310429","-0,1331843698","-0,3830762404","0,4110574175"
"13,57117942","-0,07834947377","-0,1395780078","-0,535862816","0,5592580959"
"13,58113442","-0,219835428","-0,1525617501","-0,5287005615","0,5925596905"
"13,59108842","-0,3114139348","-0,1789446795","-0,4251264918","0,5565360466"
"13,60104242","-0,2954092285","-0,2221345532","-0,3139311612","0,4849362288"
"13,61099742","-0,1362928958","-0,1659515816","-0,1873915672","0,285011018"
"13,62095142","-0,00923450768","-0,1357279086","-0,05244601607","0,1458009805"
"13,63090542","-0,01862308949","-0,1247567779","-0,04895756721","0,1353067496"
"13,64086042","-0,0596211344","-0,1336001068","-0,09358059347","0,1736692134"
"13,65081442","-0,05313964203","-0,1176673213","-0,1311723429","0,1840532629"
"13,66076842","-0,0005300500989","-0,08238522202","-0,08530970693","0,1185974361"
"13,67072342","0,01069170691","-0,03078675985","-0,03681933224","0,04917113387"
"13,68067742","0,0298329328","-0,009605221152","-0,03190474749","0,04472333915"
"13,69063142","0,08580810897","0,00220410794","-0,0218241477","0,08856739287"
"13,70058642","0,1358990128","-0,03854162961","0,03152467847","0,1447335629"
"13,71054042","0,2277032221","-0,04928004116","0,155876829","0,2803120862"
"13,72049442","0,3056466068","-0,085860807","0,3121413285","0,4452236913"
"13,73044942","0,2705319571","-0,1544129786","0,4661289221","0,5606309658"
"13,74040342","0,2163341884","-0,1847989118","0,4714832175","0,5506791654"
"13,75035742","0,291075857","-0,1460137457","0,3187925363","0,4557124637"
"13,76031242","0,3219859931","-0,107318919","0,2624762481","0,4290525737"
"13,77026642","0,2607418909","-0,08992666841","0,3397980738","0,4376481124"
"13,78022142","0,2500764234","-0,06957455724","0,3441688675","0,4310812521"
"13,79017542","0,2501058056","-0,06952485591","0,3114957958","0,4054827375"
"13,80012942","0,1863137061","-0,06816040814","0,2299411708","0,3036965267"
"13,81008442","0,07289957643","-0,07722534657","0,1093856174","0,1524575865"
"13,82003842","0,04818222642","-0,07724464238","0,07318959832","0,1168117247"
"13,82999242","0,07947513588","-0,04064165711","0,1021935421","0,1356892095"
"13,83994742","0,1405544197","-0,001790125072","0,1190908259","0,1842318492"
"13,84990142","0,08390652135","-0,06237371117","0,1947017562","0,2209967377"
"13,85985542","0,04955010943","-0,08360612065","0,3529285812","0,3660652677"
"13,86981042","0,1226314612","-0,05683639795","0,3774915648","0,4009597646"
"13,87976442","0,2087330273","-0,02949891061","0,3442641771","0,4036799302"
"13,88971842","0,2756862777","-0,007709553838","0,3255706286","0,4266832493"
"13,89967342","0,2412501975","-0,04945136458","0,3534115613","0,4307514677"
"13,90962742","0,1748586452","-0,07647397935","0,2726299381","0,3327925758"
"13,91958142","0,1063575637","-0,07276362866","0,1151474637","0,1728161318"
"13,92953642","0,09101468906","-0,09048332334","-0,06964267731","0,1460171494"
"13,93949042","0,1558147024","-0,06296457231","-0,1278312439","0,2111482554"
"13,94944442","0,1983311961","-0,04638479233","-0,06288095713","0,2131685415"
"13,95939942","0,2115116972","-0,0563119027","0,03596739292","0,221814972"
"13,96935342","0,1369125545","-0,04637134373","-0,04864591062","0,1525181095"
"13,97930742","-0,04055168308","-0,08446273774","-0,3003977805","0,314670017"
"13,98926242","-0,07661548197","-0,06316951722","-0,4856358182","0,4956838387"
"13,99921642","-0,0227865994","-0,02366192758","-0,4648665082","0,4660257358"
"14,00917042","-0,06324019544","-0,05184229106","-0,297164855","0,3082107988"
"14,01912542","-0,1177415809","-0,08460102439","-0,2572178471","0,2952650234"
"14,02907942","-0,1044599229","-0,126611807","-0,3326147693","0,370911054"
"14,03903342","-0,1189159942","-0,1315468571","-0,4203440541","0,4562178351"
"14,04898842","-0,1222035181","-0,1489624965","-0,479537757","0,5167978189"
"14,05894242","-0,1322270344","-0,118026925","-0,3946531427","0,4326262205"
"14,06889642","-0,1628632285","-0,1628192282","-0,3072255743","0,3839558383"
"14,07885142","-0,2233526744","-0,2334076926","-0,2049297059","0,3825725454"
"14,08880542","-0,3104085792","-0,2753351524","-0,04511828542","0,4173710482"
"14,09875942","-0,3080193338","-0,2937477422","-0,01168449104","0,4257935807"
"14,10871442","-0,2663312443","-0,3344060639","-0,08299304008","0,435485467"
"14,11866842","-0,2698460057","-0,2935962993","-0,1386842608","0,4221954262"
"14,12862342","-0,133939757","-0,2467016298","-0,1116174996","0,3020927322"
"14,13857742","-0,1340530468","-0,2520588487","0,0152624023","0,2858965259"
"14,14853142","-0,1855724254","-0,2845661518","0,1049358863","0,3555651277"
"14,15848642","-0,2274813934","-0,3111902788","0,1452413285","0,4119250144"
"14,16844042","-0,1940627287","-0,3140597999","0,2556659961","0,4490645857"
"14,17839442","-0,147601484","-0,2462303442","0,2691982073","0,3935520998"
"14,18834942","-0,1469168481","-0,2478818902","0,2305446035","0,3690268364"
"14,19830342","-0,1849613182","-0,2524403796","0,2136788946","0,3789399748"
"14,20825742","-0,110126752","-0,189405933","0,1381691211","0,25902358"
"14,21821242","-0,01526357174","-0,1629993224","0,1437514579","0,2178674767"
"14,22816642","-0,02452643842","-0,2045405737","0,2509022695","0,3246387859"
"14,23812042","0,02612316683","-0,2309559551","0,2798588508","0,3637912168"
"14,24807542","0,03507181875","-0,2297061127","0,3362827277","0,4087554326"
"14,25802942","0,01977126338","-0,2211235696","0,3496792835","0,4142006002"
"14,26798342","-0,005930099934","-0,237839005","0,2680831432","0,3584286959"
"14,27793842","0,04439871244","-0,1759009114","0,2092876357","0,2769723646"
"14,28789242","0,09788538672","-0,1599953154","0,1559744775","0,2439427956"
"14,29784642","0,1057288418","-0,1607621777","0,1602587324","0,2504115155"
"14,30780142","0,06195797414","-0,176081298","0,1653867406","0,2493916358"
"14,31775542","0,02577204153","-0,1665620309","0,07181257904","0,1832052258"
"14,32770942","0,01047024362","-0,1012196884","-0,1293427491","0,1645739896"
"14,33766442","-0,04343012117","-0,0891685769","-0,2382746226","0,2580930187"
"14,34761842","0,01796615481","0,01254081577","-0,3800146383","0,380645741"
"14,35757242","0,1295636277","0,05357832938","-0,4255831593","0,4480830241"
"14,36752742","0,1381846163","-0,01861607283","-0,271563406","0,3052674726"
"14,37748142","0,124250409","-0,06219887942","-0,1052650845","0,1743204026"
"14,38743542","0,1232487079","-0,1197851828","0,004816351533","0,1719358347"
"14,39739042","0,02855853215","-0,151520361","0,03780809641","0,1587559817"
"14,40734442","-0,0577544108","-0,2144749931","0,06281897664","0,2308274647"
"14,41729842","-0,06929038256","-0,2165387678","0,07214587033","0,2385271928"
"14,42725342","0,00224518463","-0,2205397251","0,05707408726","0,2278162914"
"14,43720742","-0,01515620224","-0,1826582462","0,08627976","0,2025782376"
"14,44716142","0,01409851402","-0,1978750402","0,03658135056","0,2017213296"
"14,45711642","0,0782247819","-0,1827190572","-0,01428007007","0,1992719016"
"14,46707042","0,08834945507","-0,1380173859","-0,01528462172","0,1645844606"
"14,47702442","0,1128237802","-0,1520960194","-0,01036126614","0,1896569543"
"14,48697942","0,06538356543","-0,1754363501","0,0452615422","0,1926175765"
"14,49693342","0,0954962144","-0,1357056892","0,08200310647","0,1850947609"
"14,50688842","0,07311921246","-0,1589162117","0,1029606968","0,2029819861"
"14,51684242","0,00316027388","-0,2444580531","0,2471793473","0,3476598291"
"14,52679642","0,03107656248","-0,2344496664","0,3416300064","0,4155038629"
"14,53675167","0,07772404097","-0,1840691793","0,2873812938","0,3500149959"
"14,54670567","0,1264955205","-0,159498302","0,1404366714","0,2473121181"
"14,55665967","0,1037940712","-0,1141335565","-0,03497687459","0,1581867874"
"14,56661467","0,1314871424","-0,07591878623","-0,1163560832","0,191288444"
"14,57656867","0,1258659947","-0,04022738189","-0,1484309846","0,1987265661"
"14,58652267","0,09186889417","-0,07404153764","-0,1648031884","0,2026872811"
"14,59647767","0,04810051158","-0,0965369457","-0,09652525127","0,144741719"
"14,60643167","0,04426459193","-0,08395578414","-0,09718715608","0,1358428176"
"14,61638567","0,04775698766","-0,1072104532","-0,2095630395","0,240190505"
"14,62634067","0,04611187354","-0,07074253857","-0,1663240492","0,1865328416"
"14,63629467","0,05474696852","-0,1297976625","0,1144656783","0,1815132372"
"14,64624867","-0,04124881737","-0,1357378489","0,03988268852","0,1473664052"
"14,65620367","0,09735138975","-0,1463058141","0,0884543395","0,1967405766"
"14,66615767","0,1323998927","-0,06200065881","0,3821880484","0,4091961847"
"14,67611167","0,03100668825","-0,103750948","0,393073225","0,4077158743"
"14,68606667","-0,04712994687","-0,1073309058","0,468321628","0,4827694092"
"14,69602067","-0,08150309645","-0,06626152486","0,4495111352","0,461620629"
"14,70597467","-0,01874076471","-0,02276584178","0,2644245404","0,2660635965"
"14,71592967","0,1228736821","0,1097551614","0,01767964125","0,1657006545"
"14,72588367","0,09865071416","0,1145820379","-0,1740868127","0,2305801925"
"14,73583767","0,04930094495","0,1053981087","-0,3677290535","0,3856993664"
"14,74579267","-0,07945700951","0,1002739012","-0,4636479485","0,4809757705"
"14,75574667","-0,1159343527","0,08031647712","-0,5349980128","0,5532760471"
"14,76570067","-0,0760755647","0,02616862893","-0,5524326557","0,5582599106"
"14,77565567","-0,07399424829","-0,02156014591","-0,3772179151","0,3850108364"
"14,78560967","-0,05498809308","-0,02351984024","-0,2427769786","0,2500350668"
"14,79556367","0,07045200504","-0,06021784276","-0,2311269861","0,2490167812"
"14,80551867","0,07765869834","-0,1317456624","-0,1080811036","0,1872680377"
"14,81547267","0,1039331619","-0,1064374512","0,0523273176","0,1576996555"
"14,82542667","0,1965765198","-0,1097858593","0,09763914585","0,2454152926"
"14,83538167","0,1714905759","-0,1126852012","0,1505190253","0,2544856561"
"14,84533567","0,1433216876","-0,09434833288","0,244311288","0,2985476838"
"14,85528967","0,08489440843","-0,05946165159","0,1692979431","0,1985057736"
"14,86524467","-0,07441546708","-0,0873935084","0,06080344141","0,1298935931"
"14,87519867","-0,2002255478","-0,1098288363","-0,08660603464","0,2442401452"
"14,88515267","-0,2371922299","-0,1181681353","-0,2254475856","0,3479230891"
"14,89510767","-0,1154432597","-0,05905146942","-0,3168664634","0,3423719876"
"14,90506167","-0,09447375566","-0,07397604883","-0,2796986371","0,3043502488"
"14,91501567","-0,1275286505","-0,07266919613","-0,220801388","0,2651369867"
"14,92497067","-0,09071794286","-0,06552930728","-0,2453409827","0,2696591053"
"14,93492467","0,07804402985","-0,02662295759","-0,09774965823","0,1278852929"
"14,94487867","0,1832491804","0,02006720558","0,03046750188","0,1868454536"
"14,95483367","0,1244294069","0,003952717781","0,069916327","0,1427816307"
"14,96478767","0,05956660911","0,03696960568","-0,0455813849","0,08362173949"
"14,97474167","0,04491633721","0,0004625147581","-0,2933127093","0,2967322644"
"14,98469667","0,04543644704","0,03389894038","-0,2696273929","0,2755223038"
"14,99465067","0,08774339117","0,07168744862","-0,09804845095","0,1498382185"
"15,00460567","0,08622574635","0,01378042549","0,05277462959","0,1020291183"
"15,01455967","0,02153544143","0,01176927567","0,1328557563","0,1351034532"
"15,02451367","-0,05415055253","-0,0304911831","0,04918385446","0,07925305121"
"15,03446867","-0,1264100781","-0,04930562273","-0,01973259866","0,1371128285"
"15,04442267","-0,1063976902","-0,08065985486","0,00837906003","0,1337785084"
"15,05437667","-0,1228276353","-0,08110541269","-0,003647493124","0,1472345753"
"15,06433167","-0,126388882","-0,1145726824","-0,0007595533133","0,1705919868"
"15,07428567","-0,1020658536","-0,08143007934","-0,0349499774","0,1351658137"
"15,08423967","-0,05800810687","-0,07027271479","-0,1764900184","0,1986250777"
"15,09419467","-0,1374932561","-0,1024649991","-0,155862211","0,2317250533"
"15,10414867","-0,1471222316","-0,1272033991","-0,01139096081","0,1948214818"
"15,11410267","-0,08958424084","-0,1505821753","0,1359039098","0,2217435465"
"15,12405767","-0,04652008228","-0,1487929273","0,2110622656","0,2623942325"
"15,13401167","0,04894667678","-0,1177072285","0,1815753418","0,2218566509"
"15,14396567","0,07665370815","-0,1153068003","0,07077645242","0,155501625"
"15,15392067","0,02556139559","-0,135276065","0,04259287298","0,1441081245"
"15,16387467","0,07017989025","-0,0861001043","0,002623645663","0,1111095337"
"15,17382867","0,09031916276","-0,08481020853","0,01672011316","0,1250195377"
"15,18378367","0,00648134619","-0,09505774632","0,09976519346","0,1379531689"
"15,19373767","-0,02699228235","-0,1145406689","0,07780012786","0,1410709326"
"15,20369167","0,0008360787481","-0,1309026401","0,04603045106","0,1387623963"
"15,21364667","-0,1098209426","-0,2135346146","0,1773109674","0,298490955"
"15,22360067","-0,1455811979","-0,2374136201","0,28013367","0,3950113735"
"15,23355467","-0,07725027032","-0,2058857256","0,2153646469","0,3077961459"
"15,24350967","0,004161317199","-0,1376110044","0,1516147935","0,2047953874"
"15,25346367","0,01369754121","-0,09350677237","0,1011123919","0,1384010655"
"15,26341767","0,02619991153","-0,08003785729","0,03705965281","0,0920103898"
"15,27337267","0,1052331441","-0,04655918553","0,00161383152","0,1150842162"
"15,28332667","0,1247092693","-0,05434563026","0,007306680679","0,1362322904"
"15,29328067","0,04037743606","-0,1022506987","0,05868265629","0,1246161983"
"15,30323567","0,01752702892","-0,1420892407","0,01446074903","0,1438946223"
"15,31318967","0,04991292916","-0,1228368446","-0,05005099654","0,1417225922"
"15,32314367","0,06992853306","-0,1209920481","-0,06123730481","0,1525748437"
"15,33309867","0,08024572581","-0,1857825597","0,03238889694","0,2049477412"
"15,34305267","0,01349822424","-0,2065838832","0,1898193312","0,2808744939"
"15,35300667","-0,005861979872","-0,2539339046","0,1584139359","0,2993522437"
"15,36296167","0,02535228454","-0,2174858706","0,06979938269","0,2298146994"
"15,37291567","0,06330860786","-0,1624942692","0,04308286965","0,1796343536"
"15,38286967","0,03353041962","-0,1222239102","-0,02385137737","0,1289645745"
"15,39282467","-0,01479930282","-0,1666474003","-0,07260896981","0,1823799273"
"15,40277867","-0,05469595157","-0,1455247723","0,03759876609","0,1599461587"
"15,41273267","-0,00517405495","-0,0895882608","0,06908251405","0,1132484926"
"15,42268767","0,09598562635","-0,05076406449","-0,03754672587","0,1148911978"
"15,43264167","0,1387333044","-0,005684809238","-0,03467048049","0,1431128541"
"15,44259567","0,1922965041","0,03174935773","0,03258945644","0,1976057688"
"15,45255067","0,2159778737","0,05875238433","-0,05294946134","0,2300041957"
"15,46250467","0,1809104403","0,03810674295","-0,162607559","0,2462152097"
"15,47245867","0,06191514328","-0,002257025242","-0,1674128008","0,1785094535"
"15,48241367","-0,006926173121","-0,04538930386","-0,1852327752","0,1908385228"
"15,49236767","-0,009173550457","-0,05018811375","-0,1985696894","0,2050193219"
"15,50232167","0,09812629201","0,005854963213","-0,1482450432","0,1778753569"
"15,51227667","0,1662021348","-0,002422209084","-0,1021701533","0,1951096023"
"15,52223067","0,1788886193","-0,04447246045","-0,05073512077","0,1911883635"
"15,53218467","0,1271347674","-0,1153839836","0,04517792702","0,1775324135"
"15,54213967","0,0453346324","-0,1583319287","0,1616889614","0,230797636"
"15,55209367","0,04822381474","-0,1981950291","0,2389365274","0,3141615348"
"15,56204767","0,02045801885","-0,2367093229","0,3208244437","0,3992219405"
"15,57200267","0,03044579409","-0,2071633422","0,3013520461","0,3669559271"
"15,58195667","0,08757214084","-0,1630066314","0,1942830956","0,2683019996"
"15,59191067","0,160407471","-0,1047041903","0,09551017463","0,2140460644"
"15,60186567","0,07030911371","-0,1010920729","0,04742091894","0,1319534851"
"15,61181967","-0,05738340497","-0,09697987229","-0,02874491215","0,1162936833"
"15,62177367","-0,02894335203","-0,07433097482","-0,1596085221","0,1784311961"
"15,63172867","0,02231195167","-0,03276034132","-0,2342347813","0,2375647194"
"15,64168267","0,08663695179","-0,002078685164","-0,2387570179","0,2539984172"
"15,65163667","0,0947910402","-0,006412641406","-0,2705904293","0,286785013"
"15,66159167","0,08094037503","-0,02552660465","-0,2744098306","0,2872345853"
"15,67154567","0,04337632678","-0,03099828288","-0,1927651584","0,2000020139"
"15,68149967","0,08006351195","-0,0004933588207","-0,2141285455","0,2286076188"
"15,69145467","0,0690187794","-0,0175584577","-0,2909346467","0,2995243897"
"15,70140867","-0,0174548158","-0,03075196892","-0,2581563252","0,2605667716"
"15,71136367","0,002227789164","0,04614023253","-0,21903319","0,22385134"
"15,72131767","0,09198057599","0,1002388179","-0,3003048098","0,3296835237"
"15,73127167","0,0580623398","0,0991155678","-0,2900996643","0,3120143367"
"15,74122667","-0,08769756362","0,06528913289","-0,2385395014","0,2624016526"
