Time (s),Linear Acceleration x (m/s^2),Linear Acceleration y (m/s^2),Linear Acceleration z (m/s^2),Absolute acceleration (m/s^2)
"0,0257355416","-0,02297093287","0,07365299016","0,1551441729","0,1732689848"
"0,03569154162","-0,06795897156","0,194451203","0,3184089589","0,3792281072"
"0,04564754164","0,1230825739","0,07434997827","0,3155239427","0,3467457248"
"0,05560354167","0,2077151732","-0,008950332999","0,2497211319","0,3249405259"
"0,06555854168","0,3494662987","0,06373932838","0,1165355927","0,373858182"
"0,07551454159","0,4446211088","0,005122160912","0,08313805103","0,4523561677"
"0,08547054161","0,3747881046","-0,1065084949","0,1314278662","0,4111976007"
"0,09542654164","0,3083415154","0,01446630388","0,04846289277","0,3124618633"
"0,1053815417","0,3066339822","0,09941611469","-0,02604057491","0,3233977032"
"0,1153375417","0,1352925834","0,09936144322","-0,1167256272","0,204454522"
"0,1252935417","0,007289431393","0,1308025065","-0,2708605707","0,3008785141"
"0,1352495416","-0,01801497906","0,2090452686","-0,3048165214","0,3700507742"
"0,1452045416","0,01619664118","0,2270485532","-0,2265538788","0,3211542257"
"0,1551605416","0,1129227443","0,1228090703","-0,1751100755","0,2418618458"
"0,1651165417","0,2171943869","0,08490449488","-0,1594816375","0,2825182607"
"0,1750715417","0,1762844887","0,06517774343","-0,1879862291","0,2658254719"
"0,1850275416","0,1377345268","0,07193917125","-0,2920397705","0,3308070008"
"0,1949835416","0,01612793639","0,1592948189","-0,3420375574","0,3776567758"
"0,2049395416","-0,1752556711","0,2265483239","-0,452501986","0,5355340705"
"0,2148945417","-0,3948408383","0,1956244469","-0,5513936055","0,7058350515"
"0,2248505417","-0,3399860618","0,3247993809","-0,3780137211","0,6033071634"
"0,2348065417","-0,3444442713","0,7724724439","-0,02479921103","0,8461504201"
"0,2447625416","-0,6085881454","0,4021019107","-0,3036447394","0,7901048064"
"0,2547175416","0,1178399603","0,07268030584","-0,5385776782","0,5560886607"
"0,2646735416","0,7845330571","-0,231274336","-0,4378020859","0,9277125646"
"0,2746295417","0,9016983949","-0,2222029656","0,1856368178","0,9470455012"
"0,2845845417","0,3947364655","-0,2471170744","0,4076199281","0,6189004213"
"0,2945405416","0,04047954306","-0,2401878315","-0,2565723145","0,3537769642"
"0,3044965416","-0,2952501842","0,4130180776","-0,2391265619","0,5611934749"
"0,3144525416","-0,4126467794","0,8666061839","-0,1239358288","0,9678035608"
"0,3244075417","-0,6705572292","0,7648473823","0,2694022751","1,052243366"
"0,3343635417","-0,9042792097","0,5726005796","0,4579071522","1,164161188"
"0,3443195416","-0,5553059775","0,1051408312","-0,2997481549","0,6397407907"
"0,3542755416","0,2380350329","-0,3982445025","-1,117901679","1,210356775"
"0,3642305416","1,065062364","-0,6771271607","-1,426978481","1,905026671"
"0,3741865417","1,118041354","-0,7420835871","-1,181805314","1,788118654"
"0,3841427916","0,6907314388","-0,4972141823","-0,4371711713","0,9567917729"
"0,3940977916","0,1300903887","-0,1724618715","0,386117962","0,4424406027"
"0,4040537917","-0,3017750191","0,03482835531","1,028734564","1,072649047"
"0,4140097917","-0,4778590945","0,1793990082","1,305435918","1,40167623"
"0,4239657916","-0,5891009105","0,2479555652","1,360092766","1,5027888"
"0,4339207916","-0,3382695385","0,06389808029","0,8016561896","0,8724459247"
"0,4438767916","0,1240358893","-0,003622642457","-0,210263536","0,2441490936"
"0,4538327917","0,3572057464","-0,2286673549","-0,7795706713","0,8874768369"
"0,4637887917","0,5491767067","-0,3331094438","-0,8821483755","1,09121158"
"0,4737437917","0,3425175407","-0,1198799077","-0,6251223171","0,7228190432"
"0,4836997916","-0,09203100823","0,1303630883","-0,2898792243","0,3308990872"
"0,4936557916","-0,5466060515","0,2810268322","0,2738525909","0,6728666268"
"0,5036107916","-0,604708664","0,2963827899","0,6547279394","0,9392465071"
"0,5135667917","-0,3144801416","0,1412368628","0,6333166051","0,721065554"
"0,5235227917","0,08332048416","0,07068874419","0,5011525744","0,5129260224"
"0,5334787916","0,3218062643","-0,002862504423","0,2965813029","0,4376390464"
"0,5434337916","0,2699968638","-0,08104240894","-0,05632447422","0,2874693461"
"0,5533897916","-0,07259815246","-0,08543659151","-0,5142994541","0,5263780309"
"0,5633457917","-0,3248645043","0,02057956785","-0,6568177342","0,7330552508"
"0,5733007917","-0,491072267","0,2495942473","-0,5129873389","0,752731871"
"0,5832567917","-0,3712817486","0,3085739422","-0,3265371734","0,5828332011"
"0,5932127916","0,06192128286","0,1849991789","-0,421532793","0,4644877147"
"0,6031687916","-0,01178747512","0,2699855348","-0,4758078182","0,5471966862"
"0,6131237916","0,02722916767","-0,07544253051","-0,2575949925","0,2697928523"
"0,6230797917","0,1044514444","-0,422611312","0,06675122917","0,4404158851"
"0,6330357917","0,05594937533","-0,2129462385","0,635072524","0,6721558925"
"0,6429917916","0,6243250492","-0,08302227616","0,9701577419","1,156667848"
"0,6529467916","0,7752701173","-0,4493389347","0,8593670386","1,241555855"
"0,6629027916","0,3702641138","-0,4241953227","0,2100600529","0,6009678957"
"0,6728587917","0,1575985417","-0,3867626175","-0,486950857","0,641516765"
"0,6828137917","-0,07101790588","-0,406120702","-0,9075504345","0,9968075836"
"0,6927697917","-0,4011578412","-0,3571836001","-0,6477498722","0,8414794321"
"0,7027257916","-0,5145953232","-0,1636653203","-0,04631579518","0,5419777086"
"0,7126817916","-0,4561097181","0,04244201481","0,3116817373","0,5540603802"
"0,7226367916","-0,3512696531","-0,6335157028","-0,08407652915","0,7292471307"
"0,7325927917","0,04827311408","-0,327633234","-0,3356003577","0,4714885254"
"0,7425487917","0,155301865","0,3917441529","-0,4882945472","0,6449912522"
"0,7525037916","0,104545877","0,4753151903","-0,372154811","0,6126610595"
"0,7624597916","0,3502097721","0,07923591167","-0,456928913","0,5811275641"
"0,7724157916","0,6813155944","-0,3243564543","-0,7991319466","1,099095044"
"0,7823717917","0,8597240842","-0,3695367202","-0,3443191409","0,9971151184"
"0,7923267917","1,27107534","-0,1984846124","0,3824412328","1,342121439"
"0,8022827917","1,571859475","-0,2023490372","0,7110307789","1,737023924"
"0,8122387916","1,261901936","-0,3164039487","0,7120908791","1,483098572"
"0,8221947916","0,2173981989","-0,278004114","0,8931826562","0,9603767602"
"0,8321497916","-0,4208233431","-0,006378435194","0,9276315272","1,018642833"
"0,8421057917","-0,1114397077","0,07679236025","1,080300574","1,088744784"
"0,8520617917","0,3690988003","0,1772943029","1,283336366","1,347078106"
"0,8620167916","1,316988993","0,2977068919","0,6022591192","1,478446971"
"0,8719727916","1,713682668","0,6649661216","-0,001287556887","1,838175695"
"0,8819287916","1,356855309","0,7534151986","0,2183671921","1,567282687"
"0,8918847917","1,071916982","0,2676574659","-0,1560247636","1,115791317"
"0,9018397917","0,6661390731","-0,08557955593","-0,05841309965","0,674149253"
"0,9117957917","-0,05342805594","-0,5239096454","-0,09781865537","0,5356345424"
"0,9217517916","-0,3237742909","-0,4459618753","0,1964325321","0,5850619842"
"0,9317067916","-0,4325573893","-0,1011506912","0,8494279414","0,9585745589"
"0,9416627917","-0,4188269575","-0,1666427225","1,056920482","1,149028599"
"0,9516187917","-0,2458409562","-0,3176558375","0,8414757282","0,9324293045"
"0,9615747917","0,1808649782","-0,3038037837","0,6024491537","0,6985369439"
"0,9715297916","0,14020461","-0,2284343433","0,1947830325","0,3313306681"
"0,9814857916","-0,314698462","-0,1336518547","-0,2337950706","0,4141956969"
"0,9914417916","-0,5812468573","-0,1143156973","-0,3974837798","0,7133788215"
"1,001396792","-0,204286366","0,1039064839","-0,2790425795","0,3611014233"
"1,011352792","-0,1233972637","0,1365032494","-0,005698696375","0,1840991497"
"1,021308792","0,004812660478","0,2466425729","-0,1575912327","0,292729768"
"1,031264792","0,3730906579","0,5057967255","-0,5481524938","0,8339653008"
"1,041219792","0,5509635428","0,5897416922","-0,5023155856","0,9506192911"
"1,051175792","0,737667112","0,6138436228","-0,02524535358","0,9599969215"
"1,061131792","0,7520571097","0,502447148","0,2745741373","0,9452163719"
"1,071087792","0,5029158754","0,2252011254","0,2347622001","0,5989601115"
"1,081042792","0,3364832872","0,1348174971","0,128893683","0,3847211219"
"1,090998792","0,5733900268","-0,8012503928","0,0427291131","0,9862069214"
"1,100954792","0,2015112774","-0,8346260074","-0,4231916481","0,9572348396"
"1,110909792","-0,0002496920968","-0,4623238465","-0,5875755912","0,7476553195"
"1,120865792","-0,07144211681","-0,4957234347","-0,4392902023","0,6661993557"
"1,130821792","0,2536515937","-0,362206066","-0,3439390719","0,5602021514"
"1,140777792","0,2863484562","-0,1883569425","-0,02717785835","0,3438203196"
"1,150732792","0,4935736328","-0,008747434616","0,3343180633","0,5962046763"
"1,160688792","0,0763044101","-0,2223354051","0,08362161577","0,2494954307"
"1,170644792","-0,4214694969","-0,4671477994","0,1264349288","0,6417549334"
"1,180599792","-0,5261405043","-0,3604969248","0,2385324848","0,6809402392"
"1,190555792","-0,8235840522","0,3838545048","0,4070340371","0,9956463626"
"1,200511792","-1,250769129","1,564864597","0,07689439416","2,004778634"
"1,210467792","-0,9568734527","1,193746498","-0,8557616454","1,752987592"
"1,220422792","-0,6025630647","-0,1756526971","-1,371897125","1,508654314"
"1,230378792","-0,4366452508","-1,132942179","-1,061281335","1,612617478"
"1,240334792","-0,5735039378","-1,288251244","-0,2211095363","1,427370821"
"1,250289792","-0,8599081253","-1,10177535","1,17021087","1,822839649"
"1,260245792","-0,5347375924","-0,649622443","1,157255194","1,430801592"
"1,270201792","0,1088661288","-0,1789151511","0,1313723177","0,2472269223"
"1,280157792","-0,3691463455","0,07218694702","-0,5491225469","0,665594134"
"1,290112792","-0,8085301032","0,08185838789","-1,167165055","1,42221517"
"1,300068792","-0,6632983495","0,1177680396","-1,631668451","1,76526937"
"1,310024792","0,1367476996","0,3094916627","-1,447930809","1,486939357"
"1,319979792","0,5187791522","0,4972711927","-0,7247430843","1,020618923"
"1,329935792","0,2626642179","0,4492675987","-0,1276610899","0,5358462657"
"1,339891792","-0,3006281974","0,5521661688","0,05812892497","0,6313824221"
"1,349847792","-0,6028459238","0,3542442048","0,0202407217","0,6995154403"
"1,359802792","-0,6776180345","-0,04426079124","-0,06539175153","0,6822032684"
"1,369758792","-0,7129105125","-0,1672597499","-0,2119878799","0,7623359391"
"1,379714792","-0,6819799112","-0,1513287185","-0,3895520318","0,7998423381"
"1,389669917","-0,2185556187","-0,006125543118","-0,4019592386","0,4575754695"
"1,399625917","0,1443992563","0,2668451415","-0,239113698","0,3863066597"
"1,409581917","0,1748675622","0,4677980098","-0,3657585418","0,6190258098"
"1,419537917","-0,0613774918","0,4080796655","-0,5268738914","0,669247568"
"1,429492917","-0,1931591877","0,1291610469","-0,5236877435","0,5729239919"
"1,439448917","-0,3304365353","-0,1017627485","-0,5125809574","0,6182905456"
"1,449404917","-0,4894145083","-0,1750036561","-0,4873665941","0,7125159911"
"1,459359917","-0,1812663896","-0,1724447684","-0,05318276525","0,2557794141"
"1,469315917","0,2459380565","-0,1542407781","0,6412734962","0,703922895"
"1,479271917","0,2077384159","-0,2379767069","0,9704939568","1,020610936"
"1,489227917","0,1876982537","-0,222887236","0,8694833064","0,9170117636"
"1,499182917","0,1672195503","-0,07936571985","0,6777080816","0,7025308103"
"1,509138917","-0,03468502544","0,05913303807","0,4127689862","0,4184232345"
"1,519094917","-0,1265867371","0,1990764968","0,02846015275","0,2376249858"
"1,529049917","0,02591047436","0,3915751684","-0,1257823795","0,4120966782"
"1,539005917","0,04248214133","0,4038152911","0,01930048943","0,4065021901"
"1,548961917","0,05460312702","0,1693583156","0,3350688457","0,3793874958"
"1,558917917","0,1170329715","0,05245186329","0,6011633509","0,6146912143"
"1,568872917","0,04171951823","0,003606124073","0,6041378295","0,6055873508"
"1,578828917","0,1125064225","-0,03896321386","0,4602606565","0,4754110843"
"1,588784917","0,1743670405","0,04883492187","0,512558738","0,5436038763"
"1,598739917","0,1996968133","0,1144015051","0,3498278028","0,4187433739"
"1,608695917","0,1991227629","0,143333382","0,1941836929","0,3128923772"
"1,618651917","-0,09513807245","-0,1420696525","0,08649084449","0,1916134264"
"1,628607917","-0,03730289698","-0,3020829481","-0,07273585439","0,3129474687"
"1,638562917","-0,05871371962","-0,06346947938","-0,2882823497","0,3009690829"
"1,648518917","0,03685229592","0,06771061108","-0,6572287935","0,6617344676"
"1,658474917","0,182307267","0,09075638831","-0,7812991083","0,8074038384"
"1,668429917","0,4150309085","0,1390086351","-0,6564446819","0,7889826842"
"1,678385917","0,4034593418","0,1929782894","-0,3932030332","0,5955070831"
"1,688341917","0,1773021235","0,1171551052","-0,3591886103","0,4173461626"
"1,698297917","-0,005518236682","-0,01338617697","-0,5277229071","0,5279214973"
"1,708252917","0,02352897651","-0,102137555","-0,5023471606","0,5131650442"
"1,718208917","0,02231100149","-0,1496390194","-0,2171135491","0,264627871"
"1,728164917","0,0294557143","-0,1388715179","-0,01958817244","0,1433060853"
"1,738119917","0,1621004592","-0,0391403845","0,1214566094","0,2063013246"
"1,748075917","0,1912839856","-0,02337731436","0,2210048711","0,2932221258"
"1,758031917","0,0423608847","0,006093091071","0,2252897108","0,2293186082"
"1,767987917","0,03095976435","-0,04070392996","0,1968020761","0,2033380783"
"1,777942917","-0,04198300838","-0,1044809729","0,2873140508","0,3085906844"
"1,787898917","-0,1461942784","-0,1820708933","0,07063261092","0,243949878"
"1,797854917","-0,09279180408","-0,1776989302","-0,1585390663","0,2555814239"
"1,807809917","-0,08597994402","-0,1515611453","-0,04553285301","0,1801015609"
"1,817765917","-0,2006780492","-0,171014978","0,01606464028","0,2641512347"
"1,827721917","-0,2085884549","-0,1855023319","-0,1769092637","0,3304801752"
"1,837677917","-0,247464399","-0,1304176135","-0,2729322392","0,390818871"
"1,847632917","-0,2716261905","0,01739458948","-0,3333035713","0,4303192184"
"1,857588917","-0,2400867478","0,1540834149","-0,3817945307","0,4766029888"
"1,867544917","-0,06755332097","0,2108141244","-0,2105652523","0,3055221297"
"1,877499917","0,1014782815","0,197125354","-0,0008425837755","0,2217136819"
"1,887455917","0,05266630992","0,1204424098","0,06933569849","0,148618819"
"1,897411917","-0,01081976093","-0,02469630003","0,1333387363","0,1360374693"
"1,907366917","-0,07599289969","-0,1571581732","0,3224628335","0,3666822756"
"1,917322917","-0,07933027111","-0,1811515649","0,4700728691","0,5099781207"
"1,927278917","-0,02218316674","-0,1723338175","0,5047041732","0,5337764888"
"1,937234917","0,038110836","-0,121187272","0,5830206102","0,5967007815"
"1,947189917","-0,002166466489","-0,05716121078","0,5046737677","0,5079052169"
"1,957145917","0,0102720961","0,06044222966","0,1524456829","0,1643120973"
"1,967101917","0,1006441762","0,2715624558","-0,2537399232","0,3850446289"
"1,977056917","0,1412565241","0,4415917394","-0,4691601187","0,6595967608"
"1,987012917","0,06849757321","0,3421865152","-0,5431250578","0,6455759887"
"1,996968917","0,03690543249","0,09592028372","-0,452281546","0,4638117168"
"2,006924917","0,05927212872","0,006649015099","-0,02737315536","0,0656253326"
"2,016879917","0,05018694431","-0,005316873193","0,3207993007","0,3247448072"
"2,026835917","-0,04006914161","-0,06532677434","0,4920104527","0,4979431787"
"2,036791917","-0,09536903746","-0,149949068","0,3932398707","0,431529341"
"2,046746917","-0,02705177777","-0,09486858889","0,1233628017","0,1579564138"
"2,056702917","0,05934631526","0,1394757546","-0,1301905954","0,1998125681"
"2,066658917","0,1592593702","0,2641936485","-0,3593745518","0,4736157719"
"2,076614917","0,168987456","0,2352792402","-0,4061873603","0,4989000429"
"2,086569917","0,06452212438","0,20489338","-0,3373480904","0,3999351645"
"2,096525917","0,04789359324","0,1688257805","-0,1068701452","0,2054681687"
"2,106481917","0,06846724078","0,1133448402","0,08191832185","0,1557094323"
"2,116436917","0,09462395601","0,05392207257","0,09208019793","0,1426185325"
"2,126392917","0,03980587073","0,03728725567","0,01871576786","0,057663912"
"2,136348917","0,004765626937","-0,03456398807","-0,1273833472","0,1320753482"
"2,146303917","0,2056614118","-0,06108944334","0,1886417019","0,2856820402"
"2,156259917","2,455626214","1,227661664","2,957222884","4,035148132"
"2,166215917","1,932670834","1,154700399","1,282189143","2,590860583"
"2,176171917","2,217783262","0,8476560889","1,937947946","3,064755404"
"2,186126917","0,9778924388","0,9011749229","1,039233239","1,687719049"
"2,196082917","-0,4944009407","0,2612636818","0,1809432578","0,5877341781"
"2,206038917","-0,5932929987","-0,02926853031","-0,266571638","0,6510865283"
"2,215993917","-0,4568562613","-0,4452029067","-1,141913854","1,308010139"
"2,225949917","-0,6429618797","-0,5707721552","-1,672325311","1,880386338"
"2,235905917","-0,3007866935","-0,4200440919","-0,9140227175","1,049927237"
"2,245861917","-0,1832577319","-0,7478869486","-0,5597890377","0,951988472"
"2,255816917","-0,2462143374","-0,7679484531","-0,5426286292","0,9720144834"
"2,265772917","0,002602814957","-0,592208194","-0,5531770062","0,8103839336"
"2,275728917","-0,1424052096","-0,5099821624","-0,427585246","0,6805807757"
"2,285683917","-0,3675218428","-0,55817506","-0,6495619243","0,9319669501"
"2,295639917","-0,3879765726","-0,5066347776","-0,688814283","0,9389727021"
"2,305595917","-0,4643269564","-0,3845626026","-0,3834042692","0,7144835558"
"2,315550917","-0,4966424708","-0,2600236335","-0,1895363259","0,5917685803"
"2,325506917","-0,4316099576","-0,2103962678","0,0512075758","0,482882968"
"2,335462917","-0,3702959081","-0,05997050554","0,1524380815","0,4049109652"
"2,345418917","-0,3781509114","0,02475111768","0,03887696743","0,38094901"
"2,355373917","-0,1529527096","0,1633162415","-0,1447694582","0,2665050133"
"2,365329917","0,193737258","0,3539245082","-0,2572511762","0,4785131663"
"2,375285917","0,173693222","0,3680157132","-0,2610302317","0,4834683883"
"2,385240917","0,03177033462","0,1443841267","-0,2661944926","0,304492427"
"2,395196917","0,0289682027","0,06037608303","-0,08670485258","0,1095543684"
"2,405152917","0,04757353127","0,1003553237","0,3068244553","0,3263061112"
"2,415107917","-0,02928972647","-0,02721761942","0,362824409","0,3650208743"
"2,425063917","-0,07779947005","-0,165323079","0,1020976478","0,2093045811"
"2,435019917","-0,008436655104","0,05389824517","0,02830227792","0,06145906701"
"2,444975917","0,02457855172","0,04571945228","0,1086137849","0,120379931"
"2,454930917","-0,0179214967","-0,01935545325","0,1025747806","0,1059122242"
"2,464886917","0,1088049889","0,1505310121","0,08621485591","0,2047708783"
"2,474842917","0,2286659662","0,3504001721","0,08256443918","0,4264801183"
"2,484797917","0,1858779424","0,2906850437","0,0081884408","0,3451310688"
"2,494753917","-0,004081868157","0,1787085251","-0,06830483437","0,1913607822"
"2,504709917","-0,1928332054","0,02783471994","0,03935819328","0,1987674121"
"2,514665917","-0,2447100681","-0,1250962088","0,1050154084","0,2942113439"
"2,524620917","0,1388759033","-0,07223979123","0,2005548191","0,2544156824"
"2,534576917","0,2780984735","0,1137178195","0,02937290311","0,301882876"
"2,544532917","0,1317390843","0,1127660389","-0,4434820712","0,476180337"
"2,554487917","0,1467670132","0,1630348442","-0,6986463761","0,7322756827"
"2,564443917","0,3067234446","0,2532548236","-0,5961101872","0,7166342389"
"2,574399917","0,1899557175","0,2303373197","-0,4023819923","0,5010486236"
"2,584354917","0,01516957775","0,1345151961","-0,2488469732","0,2832830212"
"2,594310917","-0,1503368846","0,0357655178","-0,08905777216","0,1783581731"
"2,604266917","-0,2466999487","-0,03893331997","-0,04612459123","0,2539766643"
"2,614222917","-0,2552317672","-0,03409672245","-0,1345058405","0,2905127581"
"2,624177917","-0,05371559277","0,04893088929","-0,1968570399","0,2098387262"
"2,634133917","0,1519274734","0,2229628113","-0,06122268677","0,2766633148"
"2,644089917","0,2310419092","0,3349362601","-0,1240457565","0,425382195"
"2,654044917","0,1685047683","0,2644277564","-0,2339248788","0,3911991107"
"2,664000917","-0,066545261","0,2127183433","-0,241041525","0,3282961805"
"2,673956917","-0,2112229179","0,1375155486","-0,1926768655","0,3172538757"
"2,683911917","-0,2972465698","0,01543496825","-0,1162116569","0,3195292017"
"2,693867917","-0,2860107064","-0,0484910325","0,07556649148","0,2997729125"
"2,703823917","-0,3452480442","-0,1040503255","0,2251850456","0,4251246723"
"2,713779917","-0,0280810339","0,04247483231","0,1782354122","0,1853659031"
"2,723734917","0,2727467363","0,1502401862","0,1117285967","0,3308265029"
"2,733690917","0,2571383981","0,1793763502","0,07685229421","0,3228038195"
"2,743646917","0,1508476388","0,1617707493","0,2054653108","0,301895312"
"2,753601917","0,09330438562","0,1354408103","0,2670446777","0,3136284129"
"2,763557917","-0,03264383554","0,05461774506","0,1700270909","0,1815431897"
"2,773513917","-0,06809097245","0,04191825047","0,0764780724","0,1106454509"
"2,783468917","0,04168004952","0,06107979544","0,03428105593","0,08150557487"
"2,793424917","0,0366548793","0,07236039005","-0,04537673235","0,09294436004"
"2,803380917","-0,0904448048","0,03178144433","-0,1011843127","0,1393864701"
"2,813336917","-0,1383022915","-0,04433439307","-0,1052405262","0,1793561557"
"2,823291917","-0,04526695088","-0,02659262516","-0,05496090353","0,07600635151"
"2,833247917","0,1011241595","0,04741858006","0,1089464915","0,1560254959"
"2,843203917","0,09755962372","0,03252075166","0,1585542691","0,1889839562"
"2,853158917","-0,07138814427","0,000692602694","0,1659977746","0,1806986663"
"2,863114917","-0,06589000739","-0,04069077373","0,1002598679","0,1266857263"
"2,873070917","-0,01184412003","-0,004922332317","-0,07189794838","0,0730330577"
"2,883025917","-0,05507046573","0,07218314633","-0,2908247191","0,3046673268"
"2,892981917","0,02604846865","0,1820233116","-0,4156048858","0,4544649929"
"2,902937917","0,1096096388","0,2846675279","-0,4634918278","0,5548644419"
"2,912893917","0,1710166591","0,3181043921","-0,265655964","0,4483416032"
"2,922848917","0,278097304","0,1750738958","0,1244538921","0,3513940107"
"2,932804917","0,06152557254","-0,04642316468","0,2919152248","0,3019188712"
"2,942760917","-0,2475048179","-0,2017674585","0,3155619496","0,4489410721"
"2,952715917","-0,2926590637","-0,257783419","0,2707015264","0,4747430201"
"2,962671917","-0,1402262447","-0,1057939652","0,09064821482","0,1976685651"
"2,972627917","0,164524861","0,1346737287","0,1363196468","0,2525638319"
"2,982582917","0,292272782","0,1810472652","0,07551620543","0,3520002679"
"2,992538917","0,140583875","0,1559650489","-0,03944531679","0,2136465666"
"3,002494917","0,08408771195","0,09757431485","-0,1133523685","0,1715816122"
"3,012449917","0,1115461636","0,085348664","0,004328109026","0,1405192997"
"3,022405917","0,02786885306","0,03653735027","0,03926405311","0,06044267368"
"3,032361917","-0,06641618371","-0,08542073093","0,09375717938","0,1431719924"
"3,042317917","-0,05148020223","-0,06615656734","0,1504704934","0,1722448026"
"3,052272917","0,1084617573","-0,01258942075","-0,07661314309","0,133386731"
"3,062228917","0,1451270154","0,07122500695","-0,3686903358","0,4025759753"
"3,072184917","0,01140842937","0,1645163094","0,02127626359","0,1662782238"
"3,082139917","0,1885463923","0,1165518918","-0,07997587681","0,235648523"
"3,092095917","0,1773409344","0,1672443279","-0,1412991357","0,2817550674"
"3,102051917","0,01373540193","0,131240536","-0,1591354823","0,2067289077"
"3,112006917","-0,0106239523","0,005280839726","-0,2020610619","0,2024090619"
"3,121962917","-0,05721522443","-0,003596695438","-0,1286890304","0,1408807463"
"3,131918917","-0,07170784079","-0,03069605492","-0,1903023112","0,2056677706"
"3,141874917","0,19154521","0,02893735863","-0,6078818017","0,6380025259"
"3,151829917","0,02477289855","0,1396283669","0,4918391293","0,5118745027"
"3,161785917","0,1453301331","-0,1227505251","0,07981157005","0,2062969358"
"3,171741917","-0,03105434306","-0,04914116979","0,02265737593","0,062390572"
"3,181696917","0,02329194501","-0,02658290416","-0,0784924382","0,08608268322"
"3,191652917","0,0669962275","0,0755029761","-0,08078454673","0,1292878064"
"3,201608917","0,03454900458","0,1180133303","-0,1811806548","0,2189685126"
"3,211563917","-0,02228205778","0,06581048526","-0,1655206418","0,1795120969"
"3,221519917","0,1220506865","0,02704505347","-0,005152566433","0,1251173606"
"3,231475917","0,1430121506","0,004589918107","0,2433312947","0,2822829459"
"3,241430917","0,104605884","-0,02740195289","0,3104737025","0,3287661448"
"3,251386917","0,1055371993","-0,006380920261","0,1016450733","0,1466647112"
"3,261342917","0,06342891432","0,05248044156","-0,09465589643","0,1254478483"
"3,271298917","0,008018798456","0,1410679514","-0,2077188277","0,2512201812"
"3,281253917","0,0200290525","0,2154818105","-0,2013769376","0,2956116449"
"3,291209917","0,04040228672","0,2200690974","-0,1263326025","0,2569487864"
"3,301165917","-0,02350354113","0,02323785827","0,01447244346","0,03608138193"
"3,311120917","-0,1437421755","-0,08585656777","0,230369187","0,2847861049"
"3,321076917","-0,1967985678","-0,1491331621","0,2481149018","0,3500448269"
"3,331032917","-0,0221283491","-0,07389930412","0,2028007346","0,2169767475"
"3,340987917","0,06625099987","-0,04042896464","0,1861870408","0,2017159149"
"3,350943917","0,06124614872","0,01993827447","0,1010065573","0,1197954513"
"3,360899917","0,08788218945","0,07831212468","0,06548121393","0,1346991369"
"3,370854917","0,08048984706","0,08219613768","-0,01362401247","0,1158465979"
"3,380810917","0,06344433635","0,0665530451","0,006416734457","0,09217193775"
"3,390766542","0,05910884522","0,0777909185","0,0689375031","0,119572831"
"3,400722542","0,03529657111","0,08407082811","0,1333954543","0,161580009"
"3,410677542","0,008835873753","0,07613352522","0,1039377666","0,1291411849"
"3,420633542","0,009224859774","0,05942123272","-0,03254033983","0,06837290875"
"3,430589542","0,1017748084","0,05776084274","-0,004828630686","0,1171227657"
"3,440544542","0,1051383461","0,07187017411","-0,01073256433","0,1278068139"
"3,450500542","-0,00345175758","0,02425227709","-0,105973767","0,1087682255"
"3,460456542","0,05261339262","0,04206983954","-0,1601201534","0,1737138567"
"3,470411542","0,06489912361","0,09966944531","-0,1497875386","0,1912647414"
"3,480367542","0,02859208055","0,1280877905","-0,1786295146","0,2216585045"
"3,490323542","0,1137510755","0,2027149267","-0,1573064733","0,2806741442"
"3,500278542","0,1949807415","0,269807414","-0,1269465601","0,3562709073"
"3,510234542","0,1160688387","0,1734997888","-0,04253849387","0,2130344467"
"3,520190542","0,01282513663","0,1112475901","0,00555134654","0,1121219331"
"3,530146542","-0,02262872458","0,0515866581","0,09789934695","0,1129492125"
"3,540101542","-0,07598617539","-0,007854126245","0,1582496291","0,175722882"
"3,550057542","-0,09279436223","-0,02290244736","0,04586731374","0,1060147453"
"3,560013542","-0,03627904952","0,007679294497","0,003273856044","0,03722712897"
"3,569968542","0,04925219379","0,05376668282","0,1367921019","0,1550119799"
"3,579924542","0,05974882297","0,08168823391","0,222987662","0,244880352"
"3,589880542","-0,006803820133","0,06862716213","0,1516288269","0,1665751497"
"3,599835542","0,03852145672","0,1426651914","0,07900465429","0,1675678814"
"3,609791542","0,06446701437","0,1805373149","-0,01618099988","0,1923838422"
"3,619747542","-0,01878366865","0,1574052912","-0,1643617237","0,2283506692"
"3,629702542","0,01637644306","0,1529796799","-0,272817049","0,313209375"
"3,639658542","0,01461314209","0,1284923447","-0,2761037689","0,3048886974"
"3,649614542","0,04320763461","0,1272186749","-0,1964079738","0,2379655082"
"3,659570542","0,1277458014","0,1317916361","-0,117742458","0,2180626322"
"3,669525542","0,0983477553","0,1097295798","-0,0463134563","0,1544596967"
"3,679481542","0,0532665997","0,05613677859","-0,04201341391","0,08805563867"
"3,689437542","0,0127195213","0,007116171084","-0,00583142817","0,01569814217"
"3,699392542","0,02231801815","-0,03150691755","0,1726530755","0,1769176765"
"3,709348542","0,0514699696","-0,08236621857","0,2391289008","0,2581007224"
"3,719304542","0,006192493737","-0,05824970651","0,103019169","0,1185087527"
"3,729259542","0,04863589726","-0,03685521953","0,02505531907","0,06596610283"
"3,739215542","0,03546767525","0,03723072041","0,03244678438","0,06080194361"
"3,749171542","-0,004827315062","0,06754926447","-0,0689836961","0,09666931483"
"3,759126542","-0,03648501769","0,05643951818","-0,1796884453","0,1918450237"
"3,769082542","-0,03540072463","0,06159588531","-0,2262088931","0,2371027788"
"3,779038542","-0,002728310823","0,09022173353","-0,295453375","0,3089338144"
"3,788993542","-0,009738172218","0,08078220785","-0,24916857","0,2621174801"
"3,798949542","0,01154035717","0,05963524081","-0,1715479517","0,1819841793"
"3,808905542","-0,009933761582","0,01196727701","-0,1189282733","0,1199409419"
"3,818861542","-0,008577280641","-0,01564769726","-0,1812525755","0,1821288453"
"3,828816542","0,07400433473","0,001575605348","-0,06387732267","0,09777237055"
"3,838772542","0,07326371178","0,03665677965","0,07131731987","0,1086160719"
"3,848728542","0,07795076676","0,06677216951","0,02370929003","0,105342181"
"3,858683542","0,08821401894","0,07274879135","-0,02522664249","0,1170917729"
"3,868639542","0,08444263794","0,07166420594","0,06098528981","0,1264338684"
"3,878595542","0,03954201512","0,01901774","0,1411868691","0,1478478184"
"3,888550542","0,07275032625","-0,03022941057","0,1785312814","0,1951405792"
"3,898506542","0,08438387342","-0,03531422239","0,2499421567","0,26615562"
"3,908462542","0,05114742257","0,02463808369","0,1299274707","0,1417894271"
"3,918417542","0,04430025995","0,07381850291","-0,0472922802","0,09822547617"
"3,928373542","0,05227133051","0,1087103371","-0,1338515371","0,1801845259"
"3,938329542","0,04039782822","0,1207770898","-0,26993788","0,2984720239"
"3,948284542","0,05635948442","0,1134086845","-0,3393279576","0,3621897072"
"3,958240542","0,06256425731","0,0857281483","-0,2286705709","0,252098853"
"3,968196542","-0,001431544572","0,03445840929","-0,132696712","0,1371052467"
"3,978151542","-0,003739879131","-0,05238527812","-0,06919419587","0,08686795037"
"3,988107542","0,009333837256","-0,06590806067","-0,03200707376","0,07386098936"
"3,998063542","0,05818995528","-0,04674081467","0,03943654597","0,084415732"
"4,008019542","0,1060641796","0,05078109451","0,06065609157","0,1323158766"
"4,017974542","0,05519998156","0,06430701993","0,02179725051","0,08750743343"
"4,027930542","0,05775177956","0,04644944061","-0,01765917599","0,0761883526"
"4,037886542","0,01666902311","0,01895480935","-0,01963202655","0,03197745449"
"4,047841542","-0,01123293981","0,005431003533","-0,0271193862","0,0298518985"
"4,057797542","-0,04032334931","-0,01990878258","-0,09834607422","0,1081401056"
"4,067753542","-0,01070829839","-0,01136994738","-0,09461496592","0,09589543854"
"4,077708542","0,07477075852","0,06629638888","-0,04961830258","0,1115699487"
"4,087664542","0,1074903155","0,09955180664","-0,07271129608","0,1635593553"
"4,097620542","0,05873155363","0,1041085418","-0,1063053042","0,159965001"
"4,107575542","0,02982423507","0,0360458187","-0,065119856","0,08018342527"
"4,117531542","0,04048458628","0,04320748843","-0,006312654018","0,05954610301"
"4,127487542","0,01479469813","0,02337278277","-0,0251348412","0,03737553089"
"4,137442542","-0,005574881583","-0,02174502756","-0,07219206333","0,07560171649"
"4,147398542","0,01525677435","0,01179357816","-0,01525129259","0,02458575959"
"4,157354542","0,05837304622","0,0382099463","0,001609153748","0,06978539888"
"4,167309542","0,06874469116","0,03635623276","0,02570319057","0,08190398177"
"4,177265542","-0,0003389923275","0,03477847125","0,07282590151","0,08070482581"
"4,187221542","-0,0357260491","0,05045624513","0,082079705","0,102758266"
"4,197177542","-0,01583557561","0,07440209158","0,08480684638","0,1139238249"
"4,207132542","0,005232892558","0,09752366334","0,00549521327","0,09781843101"
"4,217088542","0,006900883913","0,1261374517","-0,1680916625","0,2102690798"
"4,227044542","0,06243393749","0,1517070334","-0,2165756053","0,2716947061"
"4,236999542","0,1002897618","0,1245987934","-0,1210315168","0,2005779741"
"4,246955542","0,03342707008","0,09619301978","0,02114060819","0,1040066891"
"4,256911542","-0,05566096142","0,04807935197","0,08699195087","0,1139182436"
"4,266866542","-0,07541234426","0,02502465773","0,1123595113","0,137615097"
"4,276822542","-0,1020258001","0,07370532274","0,07076183438","0,1443917439"
"4,286778542","-0,03692882136","0,1331871838","0,02672703803","0,1407725056"
"4,296733542","-0,004202393889","0,1322130742","0,04876168549","0,1409810593"
"4,306689542","-0,0342007298","0,1170768987","0,1255666173","0,1750533218"
"4,316645542","-0,06615028158","0,1030681394","0,1189428914","0,1707229115"
"4,326600542","-0,0725732287","0,09871075775","0,08235335469","0,1476237185"
"4,336556542","0,01526167139","0,1269262411","0,09925473154","0,1618477402"
"4,346512542","0,04144294493","0,1330437443","0,1243053728","0,1867350564"
"4,356467542","0,02650499001","0,1403014911","0,002111429572","0,1427987431"
"4,366423542","-0,02103360415","0,1464959217","-0,1115046483","0,1853017921"
"4,376379542","-0,01085528277","0,1584675841","-0,1813320976","0,2410625272"
"4,386336042","0,02838881671","0,1562408547","-0,2025364405","0,2573677123"
"4,396291042","0,04024185374","0,1065749339","-0,1719935095","0,2062992745"
"4,406247042","-0,02068569481","0,0487347883","-0,07246922135","0,08974834597"
"4,416202042","-0,04871271506","0,00277187258","-0,05922469318","0,07673445229"
"4,426158042","-0,01813806295","0,02796006963","-0,02996698022","0,04481935658"
"4,436114042","0,0171588736","0,05995471805","-0,07104776323","0,094534543"
"4,446070042","0,04021707617","0,04554849431","-0,1228137481","0,1370229735"
"4,456025042","0,05343785003","0,06120945744","-0,05867388546","0,100223881"
"4,465981042","-0,06348899446","0,050106472","-0,07549574018","0,1106395849"
"4,475937042","-0,1210926933","0,05090512857","-0,1937135768","0,2340506832"
"4,485892042","-0,05391637154","0,09667464763","-0,2203868204","0,2466238294"
"4,495848042","-0,01945982605","0,1422330822","-0,2211428654","0,2636533736"
"4,505804042","-0,09393018387","0,1494217222","-0,2495767057","0,3056767288"
"4,515759042","-0,1039826439","0,1326326119","-0,2359965473","0,2899968454"
"4,525715042","-0,004833308458","0,1326676221","-0,1199334097","0,1789080255"
"4,535671042","-0,03665327132","0,1421363839","-0,05426859319","0,1564969461"
"4,545626042","-0,07664603367","0,1358439028","-0,1070432228","0,1891730212"
"4,555582042","-0,01834768564","0,1734271006","-0,11025159","0,206322587"
"4,565538042","-0,006350149289","0,1779255098","-0,05632447422","0,1867357969"
"4,575493042","-0,02078246623","0,1916095293","-0,06846153975","0,204531428"
"4,585449042","-0,03493309356","0,1690240011","-0,09105810463","0,1951435686"
"4,595405042","-0,04756161757","0,2162432642","-0,1093148661","0,2469271081"
"4,605360042","-0,07074692398","0,2654617634","-0,07364217281","0,2844261674"
"4,615316042","-0,06159478895","0,3647438306","-0,05358505368","0,3737690972"
"4,625272042","-0,02480915129","0,4080108145","-0,04018323541","0,4107347211"
"4,635227042","0,01140835628","0,395873822","-0,01873681784","0,3964811495"
"4,645183042","-0,0001853567362","0,3567143245","-0,0145765239","0,3570120708"
"4,655139042","0,006602602825","0,3444109787","0,02520851612","0,3453954052"
"4,665094042","-0,03751127712","0,3513410622","0,07815563858","0,3618783521"
"4,675050042","-0,1117225302","0,3931010724","0,03992069542","0,4106142214"
"4,685006042","-0,1615463624","0,4120885165","0,05369147301","0,4458665124"
"4,694962042","-0,2806116068","0,3381354545","0,1309162349","0,4584948419"
"4,704917042","-0,3126781759","0,3735134847","0,1266179466","0,5033011716"
"4,714873042","-0,2351133254","0,4116073272","0,1138435346","0,4875030441"
"4,724829042","-0,2220309113","0,411140025","0,09551075935","0,4769236322"
"4,734784042","-0,2452274736","0,4415250081","-0,04789863646","0,5073215213"
"4,744740042","-0,2073302072","0,4384355586","-0,11295008","0,4979651337"
"4,754696042","-0,192110855","0,4421401352","-0,0663968879","0,4866241121"
"4,764651042","-0,1903595408","0,4653844254","0,01066415191","0,5029245891"
"4,774607042","-0,2005319419","0,4571758848","-0,006565838456","0,49926542"
"4,784563042","-0,207716635","0,4688438574","-0,1512084121","0,5346258009"
"4,794518042","-0,1624590397","0,4306809081","-0,2617827684","0,5295367806"
"4,804474042","-0,1035756777","0,3933264825","-0,2907475358","0,4999677714"
"4,814430042","-0,06647882201","0,4156963217","-0,3295274395","0,5346131302"
"4,824385042","-0,03474583648","0,3596253973","-0,313908357","0,4786190094"
"4,834341042","-0,09133263141","0,2411572268","-0,1486303747","0,2976397921"
"4,844297042","-0,2054286195","0,146057746","0,05493108273","0,2579752056"
"4,854252042","-0,2408880356","0,1120439809","0,1225897998","0,2925904276"
"4,864208042","-0,1430210676","0,2090880264","0,1290685147","0,2843088286"
"4,874164042","-0,111546529","0,2941077114","0,07156991959","0,322589875"
"4,884119042","-0,2085766143","0,2870213246","-0,1012556487","0,3689690382"
"4,894075042","-0,1402478794","0,4081105095","-0,2468349463","0,4971429838"
"4,904031042","-0,03831490383","0,5666881675","-0,3573268569","0,6710335264"
"4,913986042","-0,1039574278","0,593341896","-0,4660914999","0,7616449558"
"4,923942042","-0,129905032","0,6827458233","-0,5279065096","0,87275567"
"4,933898042","-0,06502330385","0,7200974715","-0,5709314919","0,9212660674"
"4,943853042","-0,09941574924","0,6580149516","-0,5585470891","0,868816447"
"4,953809042","-0,1615749407","0,7583393582","-0,5711846763","0,9630352943"
"4,963765042","-0,0869656384","0,8329321421","-0,8258355957","1,1761562"
"4,973720042","-0,004817959517","0,8871479642","-0,9424670827","1,29433339"
"4,983676042","0,04457434818","0,9683034436","-0,8401256061","1,28273515"
"4,993632042","0,05750999719","0,9540333138","-0,7203348684","1,196816313"
"5,003587042","-0,00005225948989","0,8723655452","-0,4701307565","0,9909816221"
"5,013543042","-0,05422356963","0,7706987641","-0,1737780797","0,7919063085"
"5,023499042","-0,04378753223","0,5770093802","0,02329998493","0,579137343"
"5,033454042","0,02516159222","0,4471434514","0,2174866015","0,4978662408"
"5,043410042","0,02182319753","0,3747553967","0,3820114625","0,5355843694"
"5,053366042","-0,01417131186","0,4173000667","0,2623750913","0,4931337144"
"5,063321042","0,09150337011","0,6824952701","-0,06340545237","0,6915149398"
"5,073277042","0,1737833422","0,9522439197","-0,3983327955","1,046727352"
"5,083233042","0,3103550041","1,217915817","-0,5925673592","1,389523387"
"5,093188042","0,4381353041","1,469052268","-0,9124047929","1,783972986"
"5,103144042","0,5517532823","1,540123566","-1,13002705","1,988309185"
"5,113100042","0,603916951","1,585790467","-1,066362566","2,004139768"
"5,123055042","0,5613525832","1,586687868","-0,9764598709","1,945808056"
"5,133011042","0,4886211873","1,541484359","-0,9038567483","1,852533864"
"5,142967042","0,4013261314","1,590747882","-0,7285303259","1,795076022"
"5,152923042","0,2111683195","1,611730762","-0,4640326953","1,690442087"
"5,162878042","0,0480966378","1,571307644","-0,1751843351","1,581774494"
"5,172834042","0,01605674654","1,628796738","0,1042102468","1,632205994"
"5,182790042","-0,0294736214","1,608194512","0,4586269444","1,672571959"
"5,192745042","-0,1737882393","1,456664357","0,7530383456","1,648981549"
"5,202701042","-0,2510195062","1,351237304","0,8764204431","1,630020196"
"5,212656042","-0,3150772885","1,318924567","0,7873942459","1,568064224"
"5,222612042","-0,3237235663","1,267805869","0,59976879","1,439392674"
"5,232568042","-0,3019287278","1,20302062","0,416633411","1,308435313"
"5,242524042","-0,2687704103","1,273194663","0,128265692","1,307560428"
"5,252479042","-0,1868312578","1,389655412","-0,2901183754","1,431857798"
"5,262435042","0,06112065285","1,504944816","-0,6776864469","1,651621493"
"5,272391042","0,2765668684","1,584494577","-0,9358918887","1,860915346"
"5,282346042","0,3490689804","1,641655934","-1,189348222","2,057044616"
"5,292302042","0,5010178692","1,682744903","-1,312272483","2,191964503"
"5,302258042","0,6767672646","1,744156309","-1,284724495","2,269496021"
"5,312213042","0,7856101142","1,782957847","-1,099511601","2,237196392"
"5,322169042","0,8446267196","1,76427497","-0,8283013666","2,124180694"
"5,332125042","0,7669550112","1,751819816","-0,6129811585","2,008192859"
"5,342080042","0,6750065218","1,843323917","-0,6106130362","2,055802799"
"5,352036042","0,6961480802","1,944145995","-0,6874670845","2,176450503"
"5,361992042","0,6840591811","1,997001608","-0,8169010502","2,263466305"
"5,371947042","0,597122998","2,002360143","-0,9237998468","2,28460241"
"5,381903042","0,5690966356","1,991164041","-0,8120806056","2,224428045"
"5,391858792","0,5333486594","1,956705375","-0,6083355457","2,117363657"
"5,401813792","0,505119691","1,954773455","-0,4446170157","2,067358086"
"5,411769792","0,4775505808","1,951954513","-0,2869790053","2,029910817"
"5,421725792","0,463790182","1,982691425","-0,1941643971","2,045450179"
"5,431680792","0,4828514472","1,981291748","-0,2321490794","2,052451146"
"5,441636792","0,4140498919","1,995478116","-0,2080714148","2,048576076"
"5,451592792","0,3593918011","2,178041053","-0,1789885336","2,214737499"
"5,461547792","0,452254795","2,417532627","-0,2624896967","2,473438749"
"5,471503792","0,5770079914","2,584489199","-0,2832654387","2,663223977"
"5,481459792","0,6472895502","2,751956086","-0,265492242","2,83949506"
"5,491414792","0,7461194084","2,81471396","-0,28899571","2,926230915"
"5,501370792","0,85762106","2,847230911","-0,3475175679","2,993828018"
"5,511326792","0,9703921422","2,940623809","-0,3102965319","3,112107522"
"5,521281792","1,123332865","3,069529478","-0,07622605741","3,269510415"
"5,531237792","1,213564758","3,125233563","0,235751549","3,360863436"
"5,541193792","1,338906842","3,270661418","0,7444142872","3,611654783"
"5,551148792","1,352383066","3,447429763","1,330385402","3,934925317"
"5,561104792","1,265138954","3,579126309","1,606027241","4,121898253"
"5,571060792","1,199135657","3,750762261","1,487440445","4,209349468"
"5,581015792","1,169413383","3,769194439","1,266628532","4,1447198"
"5,590971792","1,207035465","3,674663966","1,388694422","4,109569572"
"5,600927792","1,279297695","3,59967284","1,563996286","4,127993645"
"5,610882792","1,368318775","3,370521044","1,686336409","4,009543473"
"5,620838792","1,403865607","3,041397939","2,14452949","3,977429673"
"5,630794792","1,201088554","2,693290972","2,569516819","3,911374011"
"5,640749792","1,005442911","2,504228855","2,845479085","3,921584989"
"5,650705792","0,769016374","2,284724964","2,98527724","3,837086727"
"5,660661792","0,4820823922","2,02761953","3,042431434","3,687822315"
"5,670616792","0,3781757621","2,148552082","3,190453699","3,865008119"
"5,680572792","0,3706770004","2,335892925","2,962054439","3,790456924"
"5,690528792","0,2063109644","2,302580899","2,503530405","3,407654252"
"5,700483792","0,04161061384","2,209998133","1,977062311","2,965568844"
"5,710439792","-0,1961020182","1,597604181","1,696719895","2,33872904"
"5,720395792","-0,5299802247","0,757750909","1,985060132","2,189869678"
"5,730350792","-0,7418555456","0,09109888896","2,270288481","2,390158665"
"5,740306792","-0,7600327118","-0,6938624766","2,234805238","2,460375847"
"5,750262792","-0,8674685752","-1,399688064","2,119097611","2,683692063"
"5,760217792","-1,009818675","-1,847686671","2,081314657","2,960667238"
"5,770173792","-1,21336164","-2,167817196","1,921830681","3,14087743"
"5,780129792","-1,284574953","-2,019455501","1,82366587","3,009001585"
"5,790084792","-1,315529382","-1,692115505","1,491235873","2,611064317"
"5,800040792","-1,339755273","-1,401905913","0,9264585757","2,149095129"
"5,809996792","-1,382991048","-1,252765076","0,3791749781","1,904168648"
"5,819951792","-1,53935378","-1,258077564","-0,05191391945","1,98873434"
"5,829907792","-1,490634926","-1,350675679","-0,2519261169","2,02726023"
"5,839863792","-1,205051212","-1,361294661","-0,3371837837","1,849044208"
"5,849818792","-1,044326603","-1,570317857","-0,3567152381","1,919312894"
"5,859774792","-1,049201865","-1,810249873","-0,3758391416","2,125813777"
"5,869730792","-0,9396860008","-1,669732217","-0,5197104675","1,985224025"
"5,879685792","-0,7543381816","-1,48919958","-1,078365145","1,987363296"
"5,889641792","-0,5977093276","-1,247537666","-1,582451853","2,101846934"
"5,899596792","-0,55571203","-1,262804015","-1,560913634","2,083252556"
"5,909552792","-0,6792608097","-1,307026068","-1,15961513","1,874678544"
"5,919508792","-0,8953962658","-1,342081296","-0,5821903056","1,715185771"
"5,929464792","-1,029374834","-1,395761366","-0,1424147844","1,740127671"
"5,939419792","-0,9096949739","-1,304531061","0,00670909524","1,590406001"
"5,949375792","-0,5767538568","-1,169323189","-0,05328333735","1,304914115"
"5,959330792","-0,3445867972","-0,9278317943","-0,3572052348","1,052239269"
"5,969286792","-0,1392357264","-0,7831283366","-0,8694137245","1,178370402"
"5,979242792","0,04049569599","-0,5084383513","-1,196779448","1,300934474"
"5,989197792","0,1842080872","-0,2458512253","-1,541959299","1,572263949"
"5,999153792","0,2602973563","-0,1625883362","-1,758193427","1,784778364"
"6,009109792","0,2715298576","-0,1294518728","-1,755441728","1,781028329"
"6,019064792","0,3353243325","-0,03660137728","-1,669280666","1,703020849"
"6,029020792","0,3466695754","0,01873433277","-1,806152875","1,839216947"
"6,038976792","0,3187460874","0,1181345869","-2,139447675","2,166285116"
"6,048931792","0,4765595874","0,3324270737","-2,317755593","2,38947856"
"6,058887792","0,508002149","0,413930828","-2,239193573","2,333107964"
"6,068843792","0,302888731","0,4130309415","-2,143802097","2,20413783"
"6,078798792","0,1873394539","0,4266438442","-2,151228645","2,201114655"
"6,088754792","0,1323341846","0,5163769698","-2,303125859","2,364010625"
"6,098710792","0,04157384947","0,7170199357","-2,530078518","2,630046251"
"6,108665792","-0,04815233253","0,7906088988","-2,766772639","2,877917982"
"6,118621792","-0,02324275531","0,8262286748","-2,955451178","3,068857396"
"6,128577792","0,1316288643","0,9138682048","-2,982538404","3,122181383"
"6,138532792","0,1668904252","0,9068421905","-2,896029434","3,039276502"
"6,148488792","0,09924742252","0,8257106115","-2,619056184","2,747927102"
"6,158444792","0,01806621529","0,7784925909","-2,394638293","2,518068636"
"6,168399792","-0,00454255566","0,7308224344","-2,027640726","2,155330364"
"6,178355792","-0,04004319459","0,8314255339","-1,562898763","1,770741207"
"6,188311792","-0,008837481737","1,00367252","-1,349874172","1,682140574"
"6,198266792","0,03229439132","1,197126773","-1,351634769","1,805843843"
"6,208222792","-0,0454956501","1,593823225","-1,450205961","2,155328202"
"6,218178792","-0,1296856883","2,084460167","-1,640919916","2,656014069"
"6,228133792","0,02166897722","2,542666112","-1,625259318","3,01779528"
"6,238089792","0,2967112572","2,873674943","-1,22998871","3,139891316"
"6,248045792","0,2110974951","2,921200528","-0,5625348902","2,982351451"
"6,258000792","-0,02340742752","2,796584668","0,1383720195","2,800103663"
"6,267956792","-0,3213053041","2,73029186","0,8338281548","2,872803532"
"6,277912792","-0,4051472868","2,603729462","1,466321472","3,015567956"
"6,287867792","-0,3608798444","2,466019347","1,611068126","2,967663423"
"6,297823792","-0,2831538299","2,347823876","1,697898694","2,911239087"
"6,307779792","-0,2429549532","2,408782123","1,43998035","2,816878029"
"6,317734792","-0,025798354","2,354194418","1,516436788","2,800442366"
"6,327690792","-0,1502609438","2,102885474","2,010202575","2,913008764"
"6,337646792","-0,3854483827","1,862451914","2,657396961","3,267882525"
"6,347601792","-0,5994674391","1,705659264","3,441146638","3,887174413"
"6,357557792","-0,9355462452","1,780332886","3,714472395","4,223995399"
"6,367512792","-1,000412186","1,77795994","3,564315312","4,106861299"
"6,377468792","-0,6459700529","1,230098053","3,582066874","3,842085582"
"6,387424792","-0,06018809505","0,2050783713","3,699927446","3,706095364"
"6,397379917","0,387858605","-1,201175239","4,409261947","4,586376257"
"6,407335917","0,3644582672","-2,440916373","5,801096324","6,304254209"
"6,417291917","0,1119378905","-3,009555757","6,970395613","7,593179238"
"6,427246917","-0,1467432224","-2,962709911","7,212713585","7,79887305"
"6,437202917","-0,1885068871","-2,346599323","5,931042506","6,381169833"
"6,447158917","-0,2087976756","-1,582366629","3,680173797","4,01137879"
"6,457113917","-0,2050059389","-0,8515963814","1,703274039","1,915303183"
"6,467069917","0,2056974818","-0,5682255466","0,4924302828","0,7795378819"
"6,477025917","0,5981428986","-0,9105304679","-0,032829777","1,089916719"
"6,486980917","0,8762089931","-1,478077007","0,02568974197","1,718462627"
"6,496936917","1,053751876","-1,952457812","0,2577785951","2,233592247"
"6,506892917","1,140476463","-2,13351012","0,2246851087","2,429616306"
"6,516847917","1,066551431","-2,151422481","-0,06907783628","2,402274421"
"6,526803917","0,9832427873","-1,947510336","-0,002907235622","2,181644183"
"6,536759917","0,4447726978","-2,16096119","-0,2261667931","2,217820424"
"6,546714917","0,2319576014","-1,922954808","-0,5359265506","2,009670817"
"6,556670917","0,101855902","-1,772036126","-1,013616003","2,043992186"
"6,566626917","-0,009597327411","-1,615081947","-1,500922955","2,204847279"
"6,576581917","-0,04405438453","-1,569593533","-1,831133934","2,412180784"
"6,586537917","-0,2142364632","-1,605312273","-2,17472802","2,711524796"
"6,596493917","-0,2899716834","-1,630627062","-2,3768037","2,896933555"
"6,606448917","-0,3307226104","-1,637743416","-2,639419697","3,123798534"
"6,616404917","-0,2923238721","-1,483202822","-3,095962694","3,445334361"
"6,626360917","-0,1535987904","-1,206333506","-3,647814721","3,845176895"
"6,636315917","0,131927657","-1,006508127","-4,194533477","4,315619841"
"6,646271917","0,2693459956","-0,9189656612","-4,591721973","4,69051765"
"6,656226917","0,3870394101","-0,895881","-4,688030292","4,788531121"
"6,666182917","0,5829066626","-0,9016989796","-4,411780343","4,540555805"
"6,676138917","0,5648833513","-0,9213581957","-4,267444748","4,402167512"
"6,686093917","0,5078535566","-0,8640255153","-4,125627549","4,245616328"
"6,696049917","0,3694148058","-0,6101921828","-3,83983202","3,905523236"
"6,706005917","0,3360246462","-0,440132786","-3,322940496","3,368762825"
"6,715960917","0,4675353967","-0,1996578562","-2,755832498","2,80233213"
"6,725916917","0,5652781845","0,096320014","-2,684852563","2,745405299"
"6,735872917","0,8143383618","0,3918485257","-2,865454928","3,004583861"
"6,745827917","0,9723128063","0,6611651391","-3,039790832","3,2592729"
"6,755783917","1,051094097","0,7228729986","-3,018827394","3,277295075"
"6,765739917","1,065857951","0,639953341","-2,625958237","2,905382955"
"6,775694917","1,001074895","0,4789710157","-2,146628641","2,416522026"
"6,785650917","0,84802651","0,4282049046","-1,673313491","1,924184617"
"6,795606917","0,8773874994","0,5644628634","-1,382865332","1,732265475"
"6,805561917","0,9962013866","0,853676236","-1,280953041","1,833581471"
"6,815517917","0,8936535032","1,231402713","-1,50619422","2,140932099"
"6,825473917","0,8023995169","1,695769576","-1,894693753","2,666335286"
"6,835428917","1,065153288","2,325555048","-2,120002175","3,322223206"
"6,845384917","1,25342435","2,662651854","-2,26497687","3,713611143"
"6,855340917","1,389212046","2,789988424","-1,833297404","3,61592656"
"6,865295917","1,520187192","2,797056538","-0,827855224","3,289352314"
"6,875251917","1,598538712","2,799748011","0,3901244742","3,247477798"
"6,885206917","1,41713791","2,473467823","1,65174779","3,29463104"
"6,895162917","0,9130351958","2,111579992","2,702307671","3,5489252"
"6,905118917","0,633330346","2,058300601","3,354316655","3,986119531"
"6,915073917","0,5460743203","2,119427978","3,05921002","3,761507419"
"6,925029917","0,3062746708","2,35076064","2,369548475","3,351811412"
"6,934985917","0,2515357422","2,642145669","2,144051188","3,41191434"
"6,944940917","0,3703005128","2,344758035","2,383838485","3,364178746"
"6,954896917","0,07887901224","1,89127971","2,712763662","3,307906819"
"6,964852917","-0,05527548373","1,559930424","3,006441237","3,387495715"
"6,974807917","0,06988460585","1,254648465","3,219782163","3,456302042"
"6,984763917","-0,01387171514","0,9156929746","3,609534754","3,72389946"
"6,994719917","-0,2909665871","0,9707522576","3,85741986","3,988321637"
"7,004674917","-0,4240753086","1,405370827","3,442186857","3,742132733"
"7,014630917","-0,4606554897","1,420350955","2,804119974","3,176899297"
"7,024586917","-0,7697697146","1,475307619","2,44209371","2,955147995"
"7,034541917","-0,901854881","0,7243893278","2,788245953","3,018674812"
"7,044497917","-1,008802356","-0,475773612","3,388510587","3,567358508"
"7,054453917","-0,8992446108","-1,774610801","3,962722367","4,434078588"
"7,064408917","-0,8112144868","-2,588058339","4,441564305","5,204191425"
"7,074364917","-0,9427285264","-3,15648196","4,573633611","5,636509545"
"7,084319917","-1,132853667","-3,3272458","4,149392388","5,437957267"
"7,094275917","-1,355263551","-2,998467389","3,261962807","4,633351631"
"7,104231917","-1,330709631","-2,538834724","2,412865818","3,746784132"
"7,114186917","-1,190033443","-2,227641814","1,780912199","3,090342361"
"7,124142917","-1,093573315","-1,770300964","1,298898146","2,452958315"
"7,134098917","-0,8804597727","-1,362157564","0,6036589426","1,730631896"
"7,144053917","-0,7152958842","-1,109845385","0,08800293446","1,323310053"
"7,154009917","-0,7663672198","-1,06169678","0,05793304324","1,310677308"
"7,163965917","-0,6037681759","-0,9346578339","0,150633046","1,122858669"
"7,173920917","-0,3866940589","-0,7532991314","0,1084600031","0,8536717454"
"7,183876917","-0,2618962409","-0,729846388","-0,12209571","0,7849667212"
"7,193832917","-0,1689404224","-0,6369801781","-0,5056718874","0,8306555672"
"7,203787917","0,09888116755","-0,4131727365","-0,8600108171","0,9592224981"
"7,213743917","0,428881062","-0,1898069058","-1,173744927","1,263978948"
"7,223699917","0,6964102547","-0,1721841288","-1,278023586","1,46559848"
"7,233654917","0,6630496967","-0,1814873412","-1,366922314","1,530048747"
"7,243610917","0,4906711115","-0,1170847924","-1,58935683","1,667489766"
"7,253565917","0,5133029789","-0,03142337546","-1,599504672","1,680143617"
"7,263521917","0,432878913","-0,07391421452","-1,704838754","1,760489319"
"7,273477917","0,2344334039","-0,1443097208","-1,982866842","2,001885418"
"7,283432917","0,06365421485","-0,2814013463","-2,291130881","2,309224825"
"7,293388917","0,1346956923","-0,3763959427","-2,515591457","2,547158655"
"7,303344917","0,1797583561","-0,3825346421","-2,543999569","2,578871774"
"7,313299917","0,02183935046","-0,305678401","-2,677824209","2,695303088"
"7,323255917","-0,04902861089","-0,1164364824","-2,805195862","2,808039366"
"7,333211917","-0,08351494063","0,02245944768","-2,781091885","2,782436207"
"7,343166917","-0,2598498616","0,1127715938","-2,68146644","2,696386777"
"7,353122917","-0,3808452718","0,1510832816","-2,743698941","2,774122052"
"7,363078917","-0,3935266401","0,02597713262","-2,882759762","2,90961198"
"7,373033917","-0,322494043","0,06287087068","-3,00202542","3,019952281"
"7,382989917","-0,2218275744","0,1515510589","-3,213743159","3,224952757"
"7,392945292","-0,1445238751","0,3206680307","-3,207403607","3,226631841"
"7,402900292","-0,1409234886","0,5259969552","-3,007596062","3,056495755"
"7,412856292","-0,2449917212","0,4812777422","-2,669735756","2,723809504"
"7,422811292","-0,4470833713","0,4811059803","-2,496328974","2,581279693"
"7,432767292","-0,4847761314","0,5315599962","-2,415088345","2,51996342"
"7,442723292","-0,4789145169","0,7644861706","-2,256375031","2,430026029"
"7,452678292","-0,4622794442","1,073135249","-1,964061027","2,285357142"
"7,462634292","-0,4608553549","1,393989368","-1,551214857","2,135851481"
"7,472590292","-0,4058575773","1,626032613","-1,316811676","2,131359993"
"7,482545292","-0,221565948","1,822032597","-1,098215858","2,138918494"
"7,492501292","-0,05567174222","2,092030557","-0,833340497","2,252586864"
"7,502457292","0,06126668707","2,288379474","-0,6037466508","2,367476345"
"7,512412292","0,1580362058","2,523951513","-0,1752661961","2,534960537"
"7,522368292","0,2291675111","2,501865703","0,4387224376","2,550358234"
"7,532324292","0,4736420095","2,552787642","1,094245014","2,817522608"
"7,542279292","0,8341668548","2,613575588","1,55050559","3,151298031"
"7,552235292","1,09879634","2,47472936","1,842212069","3,274963222"
"7,562190292","1,123258751","2,290555515","2,049963056","3,272721089"
"7,572146292","1,189939887","2,029745724","2,467742522","3,409630155"
"7,582102292","1,050286596","1,604337835","3,079955941","3,628102868"
"7,592057292","0,4615022762","1,2435332","3,503645187","3,746316693"
"7,602013292","-0,1079171257","0,8877210644","3,768519378","3,873168354"
"7,611969292","-0,3635134303","0,7965229189","4,075730335","4,168713055"
"7,621924292","-0,4810422822","0,8542884395","3,884771381","4,00657698"
"7,631880292","-0,3921828768","0,9358698155","3,413413294","3,5610462"
"7,641836292","-0,2538875654","0,9029801045","2,830489748","2,981862535"
"7,651791292","-0,1125451238","0,5352229844","2,432231212","2,492965847"
"7,661747292","-0,09029105958","-0,3398698483","2,531674224","2,5559809"
"7,671702292","-0,3598912629","-1,680370495","3,710743625","4,08935019"
"7,681658292","-0,7991490497","-3,058070982","5,62396662","6,45131288"
"7,691614292","-1,06232309","-3,641995572","6,624662615","7,634056383"
"7,701569292","-0,7939362569","-3,143732399","5,333681599","6,241918581"
"7,711525292","-0,2996675729","-1,815310638","3,011934112","3,529433447"
"7,721481292","-0,07916830324","-1,031544443","1,20867327","1,590987942"
"7,731436292","-0,00542596031","-0,8157652286","-0,322694968","0,8772880893"
"7,741392292","0,2276599893","-1,114817419","-1,195648012","1,650521468"
"7,751348292","0,4136059786","-1,716713572","-1,186868418","2,127635315"
"7,761303292","0,5437452647","-2,3056387","-0,4997352093","2,421025404"
"7,771259292","0,4840229369","-2,786173115","0,3848865384","2,853975557"
"7,781215292","0,4018316232","-2,964294507","1,014801233","3,15884981"
"7,791170292","0,1960801642","-2,919765621","1,271456578","3,190623848"
"7,801126292","0,02210397352","-2,647112294","1,319394391","2,95778526"
"7,811081292","-0,04144411437","-2,222672558","1,262077644","2,55633153"
"7,821037292","-0,01136859521","-1,825278094","0,8045792127","1,994772437"
"7,830993292","-0,0567461681","-1,578779216","0,07004438102","1,581350738"
"7,840948292","-0,1410473034","-1,336107488","-0,7659630311","1,546537075"
"7,850904292","-0,2275975337","-1,169002835","-1,818505703","2,173782707"
"7,860860292","-0,2016870959","-1,105259998","-2,660062707","2,887596051"
"7,870815292","-0,2240212304","-1,150413075","-2,951009048","3,175230725"
"7,880771292","-0,2104941355","-1,013360626","-3,26207215","3,422327023"
"7,890727292","-0,1789519154","-0,8012195487","-3,691531429","3,781716653"
"7,900682292","-0,2853050206","-0,6226311108","-4,198627113","4,254120131"
"7,910638292","-0,3998017623","-0,4018686068","-4,554087539","4,589232304"
"7,920593292","-0,2829116821","-0,1694727749","-4,612122908","4,623898546"
"7,930549292","-0,1362678259","-0,05230305165","-4,431195438","4,433598712"
"7,940505292","0,08942271151","-0,1234044631","-4,136713285","4,139519524"
"7,950460292","0,1838980021","-0,2108044034","-3,828154546","3,838362177"
"7,960416292","0,3054872701","-0,1766970098","-3,570358409","3,587757444"
"7,970372292","0,5277215914","-0,1662423344","-3,246382901","3,293194275"
"7,980327292","0,6863262197","-0,2865327166","-2,826923531","2,923121846"
"7,990283292","0,761121975","-0,2780649251","-2,452906381","2,58328792"
"8,000239292","0,9637129408","-0,1516604018","-2,222048367","2,426776145"
"8,010194292","1,184092525","0,01140557885","-2,094187887","2,405790536"
"8,020150292","1,229786396","0,2175808878","-2,057394868","2,406779937"
"8,030106292","1,298633413","0,5016266374","-1,985191694","2,424678141"
"8,040061292","1,343100758","0,8103230788","-1,692846699","2,307871982"
"8,050017292","1,273535848","1,088314475","-1,313813809","2,128950135"
"8,059972292","1,112746627","1,495175727","-0,8729647386","2,0581115"
"8,069928292","1,031827156","1,930150246","-0,3950846672","2,224014196"
"8,079884292","1,118774083","2,325624922","0,132106728","2,584112791"
"8,089839292","1,145729821","2,491963151","0,597183736","2,806992266"
"8,099795292","0,805145881","2,474632296","0,7151191521","2,698788671"
"8,109751292","0,5056189701","2,581666748","1,087339452","2,84657001"
"8,119706292","0,205050597","2,619843511","1,602127733","3,077732777"
"8,129662292","-0,01365354091","2,577454414","1,879291018","3,18985774"
"8,139618292","-0,1439229275","2,633769532","2,066025943","3,350510253"
"8,149573292","-0,24131057","2,567249268","2,036710342","3,285907579"
"8,159529292","-0,2878732639","2,262755952","2,003276548","3,035795191"
"8,169484292","-0,3514756943","1,788978872","2,201279642","2,858253423"
"8,179440292","-0,5420017346","1,061980955","2,552977384","2,817669774"
"8,189396292","-0,8655950542","0,5428291887","3,166619863","3,327371287"
"8,199351292","-1,010934689","0,325706284","3,599321423","3,752757417"
"8,209307292","-0,9534624063","0,249065659","3,676515779","3,806296433"
"8,219263292","-0,9483672157","0,4543308489","3,424656905","3,582470071"
"8,229218292","-0,9750930843","0,7272896929","2,6108005","2,880284026"
"8,239174292","-0,8375606518","1,023714729","2,039815798","2,431120767"
"8,249130292","-0,7087196669","1,172109022","1,689823689","2,175230385"
"8,259085292","-0,4350749445","0,8048780054","0,9289313632","1,303852863"
"8,269041292","-0,2878655894","-0,2337393759","0,8019713545","0,8835489499"
"8,278996292","-0,5323780947","-1,995734224","2,12128213","2,960780202"
"8,288952292","-0,9672481674","-3,105461496","3,690370756","4,919176398"
"8,298908292","-1,364301884","-3,209631397","4,067258888","5,357765224"
"8,308863292","-1,570484502","-2,870028035","2,860946724","4,346090042"
"8,318819292","-1,479420112","-2,354270724","1,576750817","3,19646956"
"8,328775292","-1,337280439","-2,007411114","0,7364872169","2,521989646"
"8,338730292","-1,215913292","-1,761578673","0,1890305418","2,14879899"
"8,348686292","-1,003667842","-1,685990108","0,3130365372","1,986933229"
"8,358642292","-1,012057427","-1,72862742","0,6739465678","2,113437241"
"8,368597292","-1,279238053","-1,976929579","0,8573550117","2,505944567"
"8,378553292","-1,362031703","-2,019047512","0,7884192628","2,559939091"
"8,388508333","-1,250239079","-1,753926276","0,3097001159","2,176067393"
"8,398464333","-1,112960855","-1,500478713","-0,4584059197","1,923604486"
"8,408420333","-0,9042266578","-1,171068072","-1,110706095","1,850052515"
"8,418375333","-0,5791152549","-0,8787511432","-1,637453687","1,94649239"
"8,428331333","-0,2582630369","-0,6785588515","-1,879935966","2,015267016"
"8,438287333","-0,09232548863","-0,6227142875","-2,03494039","2,130089076"
"8,448242333","0,02875974946","-0,6407763366","-1,983914078","2,08502674"
"8,458198333","0,1384967845","-0,7609608842","-1,645819298","1,818505977"
"8,468154333","0,1042681342","-1,04352875","-0,9593602735","1,421336072"
"8,478109333","0,2305242113","-1,093277738","-0,5342910844","1,238492869"
"8,488065333","0,3145438032","-1,074256745","-0,8165133798","1,385517758"
"8,498020333","0,4045354488","-0,8542491169","-1,501536913","1,774261419"
"8,507976333","0,5739995259","-0,6014191666","-2,146329848","2,30171942"
"8,517932333","0,6305527724","-0,5122326095","-2,69176748","2,81168832"
"8,527887333","0,6465660303","-0,3440725346","-3,203053279","3,28572425"
"8,537843333","0,8177822987","-0,1683686744","-3,495445052","3,593779627"
"8,547798333","0,705569114","-0,02068847224","-3,598878788","3,667449294"
"8,557754333","0,5906084689","0,1205021976","-3,607823274","3,65783104"
"8,567710333","0,4773338684","0,2093136558","-3,414800838","3,45434865"
"8,577665333","0,3144859888","0,3190438204","-3,220085633","3,251098566"
"8,587621333","0,1639870633","0,2664313048","-3,043065857","3,059105622"
"8,597577333","0,04378468171","0,2311125143","-2,845491949","2,855197808"
"8,607532333","-0,09478343882","0,2149772689","-2,534823534","2,545688409"
"8,617488333","-0,1250240687","0,2748790696","-2,245813206","2,266024377"
"8,627444333","-0,1840085875","0,5192223711","-1,875165222","1,954404165"
"8,637399333","-0,1378628001","0,7364679211","-1,533449262","1,706709638"
"8,647355333","-0,1207414218","0,9855873746","-1,519599547","1,815253081"
"8,657310333","-0,2475395358","1,32975785","-1,533332317","2,044661282"
"8,667266333","-0,4694559147","1,472155824","-1,216699158","1,966720231"
"8,677222333","-0,7200569064","1,541416385","-0,4681269157","1,764536549"
"8,687177333","-0,8066440838","1,528996169","0,6708954906","1,854347519"
"8,697133333","-0,935654638","1,455065289","1,424080017","2,240684827"
"8,707089333","-0,9653433638","1,628738119","1,441419935","2,379572882"
"8,717044333","-0,8186436667","2,057595866","1,195953822","2,516780432"
"8,727000333","-0,6740423159","2,450897571","1,21968767","2,819374036"
"8,736956333","-0,4515067168","2,767801749","1,553972989","3,206152973"
"8,746911333","-0,2959042684","3,023590536","1,727242361","3,494713899"
"8,756867333","-0,2200144259","3,116672362","1,853175014","3,632672651"
"8,766822333","-0,06908858053","2,941578659","2,06289125","3,593491137"
"8,776778333","0,06411011495","2,803473857","1,966151406","3,424810524"
"8,786734333","0,2854460847","2,623072928","1,878197588","3,238767858"
"8,796689333","0,4935210078","2,396986242","1,900311758","3,098433606"
"8,806645333","0,3261826129","2,080646028","2,210448076","3,053123595"
"8,816601333","0,01464040473","1,745076807","2,615364252","3,144143377"
"8,826556333","-0,328138141","1,555445025","3,213670653","3,585353948"
"8,836512333","-0,7531535357","1,495303781","3,928015634","4,269950874"
"8,846467333","-0,8580648637","1,386248531","4,561014735","4,843636621"
"8,856423333","-0,4343207633","1,387457297","4,732931646","4,951193214"
"8,866379333","-0,1609553916","1,31019292","4,376110573","4,570870363"
"8,876334333","0,1597806129","1,12772237","3,591362777","3,767648363"
"8,886290333","0,6729772456","0,3014140266","2,825016169","2,91966867"
"8,896246333","0,6922180934","-0,7994968128","2,578357809","2,786806422"
"8,906201333","0,2253066494","-1,600199906","2,906220546","3,325285053"
"8,916157333","0,1043765453","-2,135011685","3,500920969","4,101904069"
"8,926112333","0,1991582665","-2,925903443","3,838356768","4,830482134"
"8,936068333","0,1487444319","-2,704481373","3,717750928","4,599784383"
"8,946024333","0,08044942819","-2,095367271","2,623404758","3,35846522"
"8,955979333","0,1560093781","-1,747345088","1,339286619","2,207089131"
"8,965935333","0,4144055123","-1,67277467","0,3129359651","1,751523892"
"8,975891333","0,8557527284","-2,025966083","-0,3905823112","2,233697796"
"8,985846333","1,23253488","-2,255275463","-0,5596533823","2,630327271"
"8,995802333","1,409145935","-2,428859707","-0,5358973145","2,858712591"
"9,005757333","1,447623246","-2,466806675","-0,4963140035","2,902942614"
"9,015713333","1,337635804","-2,360868576","-0,4056716359","2,743636173"
"9,025669333","1,062799492","-2,312659452","-0,364468646","2,571142527"
"9,035624333","0,8074383549","-2,179376118","-0,3290602469","2,347321369"
"9,045580333","0,6894361344","-1,966645788","-0,2428424674","2,098092063"
"9,055536333","0,5375175049","-1,82313202","-0,4070925093","1,943826057"
"9,065491333","0,455613326","-1,698278324","-0,8681723607","1,960983431"
"9,075447333","0,3284138738","-1,737247093","-1,2484051","2,164347114"
"9,085402333","0,08050417274","-1,768447689","-1,38207245","2,245887889"
"9,095358333","-0,07669175159","-1,733198042","-1,685831795","2,419067159"
"9,105314333","-0,1261884321","-1,690380636","-2,193342047","2,772013627"
"9,115269333","-0,1206434809","-1,509453897","-2,860554961","3,236631057"
"9,125225333","-0,1393473716","-1,307756532","-3,582273865","3,816062222"
"9,135181333","-0,2231468524","-1,250431307","-4,036724728","4,231845874"
"9,145136333","-0,3033971829","-1,141703062","-4,328158143","4,486478423"
"9,155092333","-0,2963498628","-1,049632366","-4,501789457","4,632025438"
"9,165047333","-0,2506402777","-0,9574143201","-4,433764704","4,542877082"
"9,175003333","-0,2488387505","-0,8862988754","-4,173168921","4,273498012"
"9,184959333","-0,1543967526","-0,8319438896","-3,809462167","3,902303294"
"9,194914333","-0,06504742362","-0,7265187375","-3,475741689","3,551456171"
"9,204870333","-0,03254505415","-0,5956435794","-3,146237054","3,202289502"
"9,214826333","0,2104574443","-0,359347216","-2,817030627","2,847645397"
"9,224781333","0,4271039836","-0,2068082701","-2,567859718","2,611338929"
"9,234737333","0,5430836888","-0,07582259953","-2,268010406","2,33335813"
"9,244692333","0,5609661919","0,009332887083","-2,184171858","2,25507802"
"9,254648333","0,6829824894","0,09527730927","-2,212615639","2,317587283"
"9,264604333","0,6707373235","0,2296992423","-2,132181925","2,246964633"
"9,274559333","0,5696866562","0,3589000502","-2,084206105","2,190266473"
"9,284515333","0,5271829532","0,5291642457","-1,992999482","2,128375812"
"9,294471333","0,5235578988","0,8457895115","-1,885044093","2,131399541"
"9,304426333","0,5957685636","1,162999353","-1,935868676","2,335614525"
"9,314382333","0,7121436502","1,49682932","-1,971724972","2,575916527"
"9,324337333","0,8427992454","1,817381429","-1,850059617","2,726885846"
"9,334293333","0,9516974974","2,149642588","-1,634348815","2,863177856"
"9,344249333","0,9372716855","2,709640664","-1,287482627","3,14296711"
"9,354204333","0,904990962","3,05289912","-0,9460736454","3,321785216"
"9,364160333","0,8615971667","3,223079115","-0,4737484288","3,369721982"
"9,374116333","0,6793228633","3,321544181","0,04488498151","3,390597286"
"9,384071333","0,5008368979","3,174832862","0,6494081426","3,279044409"
"9,394028083","0,2114593647","2,886276278","1,425958142","3,226245874"
"9,403983083","-0,1221559364","2,802444747","2,026780016","3,460701644"
"9,413939083","-0,09242028661","2,683128511","2,528678695","3,688080267"
"9,423895083","-0,0520850236","2,604848619","3,018537372","3,987419848"
"9,433850083","0,07397005543","2,611951232","3,076578589","4,036470813"
"9,443806083","0,1342003966","2,379262601","2,774552944","3,657464191"
"9,453762083","0,1419653528","1,953192807","2,841356798","3,450858553"
"9,463717083","0,1551245116","1,628301625","3,4015873","3,7744173"
"9,473673083","-0,04631360248","1,283611186","3,829996419","4,039638003"
"9,483628083","-0,3217787824","1,181469537","3,910608473","4,097837293"
"9,493584083","-0,6952971641","1,596516453","3,768867288","4,151706103"
"9,503540083","-0,890914375","1,913626453","3,341320049","3,952229028"
"9,513495083","-1,165436765","1,807473322","2,834752952","3,558233686"
"9,523451083","-1,278297382","1,013752097","2,657893975","3,118675663"
"9,533407083","-1,32412552","-0,5094316471","3,282687094","3,576152059"
"9,543362083","-1,57869297","-2,380055922","4,545669302","5,368430598"
"9,553318083","-2,113934812","-3,498753699","5,672545288","6,991978824"
"9,563273083","-2,405912894","-3,904327686","5,707413989","7,321664153"
"9,573229083","-2,499399055","-3,956103904","4,445618765","6,454554976"
"9,583185083","-2,35726903","-3,579381832","2,965078619","5,211562414"
"9,593140083","-1,892429857","-3,280995494","1,788442828","4,188645359"
"9,603096083","-1,358479373","-2,936122037","0,9913691014","3,38365062"
"9,613051083","-0,9544040273","-2,643692842","0,4086771047","2,840249261"
"9,623007083","-0,4261000532","-2,499168382","0,4472336447","2,574377943"
"9,632963083","-0,3412142694","-2,272909642","0,7582107925","2,420212599"
"9,642918083","-0,3410457965","-2,208870351","0,6457179648","2,326450548"
"9,652874083","-0,3277789027","-1,961717024","0,5559468323","2,065151222"
"9,662830083","-0,3754134643","-1,68254639","0,3800871438","1,765322594"
"9,672785083","-0,3193809854","-1,544494945","0,09682872176","1,580140705"
"9,682741083","-0,3011980451","-1,405937861","-0,1639904255","1,447160803"
"9,692696083","-0,1439417848","-1,210901644","-0,4720825571","1,307617669"
"9,702652083","0,1305230827","-0,9737583111","-0,9033304989","1,33463385"
"9,712608083","0,2191527656","-0,839483728","-1,587601495","1,809209599"
"9,722563083","0,1439632733","-0,8444272564","-2,253867745","2,411162091"
"9,732519083","0,16032159","-0,8412767766","-2,479020631","2,622783429"
"9,742474083","0,2779515622","-0,7334530967","-2,52783962","2,646730749"
"9,752430083","0,4157847608","-0,8820254378","-2,500986866","2,68435861"
"9,762386083","0,4944810475","-0,9290582478","-2,274592032","2,506278046"
"9,772341083","0,6409416667","-0,7582002676","-2,404615982","2,60150954"
"9,782297083","0,7145428359","-0,6542003743","-2,912779952","3,06966393"
"9,792253083","0,6879687756","-0,6042964353","-3,319730374","3,443702219"
"9,802208083","0,563155097","-0,6037120061","-3,421908129","3,520094756"
"9,812164083","0,4000618537","-0,5361369042","-3,527160349","3,590035153"
"9,822119083","0,4804344641","-0,4094923528","-3,567358788","3,622782078"
"9,832075083","0,4622214472","-0,2594734105","-3,569042786","3,608190893"
"9,842031083","0,4133453024","-0,1345162193","-3,763795413","3,78881312"
"9,851986083","0,3356196169","-0,1380819976","-3,861774867","3,878790054"
"9,861942083","0,3339879514","-0,02389771655","-3,72587388","3,74088963"
"9,871898083","0,314737346","0,03815995261","-3,510525021","3,524812293"
"9,881853083","-0,03283544149","-0,04192219734","-3,293093968","3,293524483"
"9,891809083","-0,3893851668","0,04889427111","-3,002804854","3,028340874"
"9,901764083","-0,3421751497","0,2208997674","-2,700928897","2,731464341"
"9,911720083","-0,4037947893","0,4666844076","-2,399717769","2,477799415"
"9,921676083","-0,5089684379","0,7727807383","-2,165958366","2,355337467"
"9,931631083","-0,2972803375","1,005036529","-1,870940024","2,144502413"
"9,941587083","-0,2602613594","1,320174994","-1,595316896","2,08701557"
"9,951542083","-0,6672184691","1,419227705","-1,435051732","2,12573781"
"9,961498083","-0,884770267","1,553424081","-1,268948708","2,192299164"
"9,971454083","-0,8702042681","1,816892748","-0,8094119364","2,171060204"
"9,981409083","-0,7875371372","2,043853593","-0,2123305267","2,200599124"
"9,991365083","-0,6415423219","2,284893803","0,2879443806","2,390654347"
"10,00132108","-0,4678776781","2,467781698","0,7833982587","2,63107751"
"10,01127608","-0,3470247572","2,676936602","1,079151596","2,907057605"
"10,02123208","-0,1704043825","2,824340231","1,107670221","3,038563593"
"10,03118708","-0,08688377738","2,828473335","0,9458438498","2,983694151"
"10,04114308","-0,103822211","2,799355078","0,7701344347","2,90521513"
"10,05109908","-0,0558523481","2,543701361","0,9520880914","2,716616983"
"10,06105408","-0,3107624088","2,306750256","1,442646096","2,738411543"
"10,07101008","-0,5925475883","2,18334477","1,674973515","2,814896677"
"10,08096508","-0,7105955999","2,229468922","1,998512236","3,077259973"
"10,09092108","-0,6767431448","2,261017428","2,662012753","3,557596519"
"10,10087708","-0,4987662526","1,983913055","3,497024385","4,05140202"
"10,11083208","-0,4901816264","1,698236955","4,313060047","4,661198746"
"10,12078808","-0,270781012","1,611318241","4,566760794","4,850254939"
"10,13074308","0,1146125531","1,005274803","4,036978498","4,1618396"
"10,14069908","0,1477324616","-0,07275865853","3,206420106","3,210646134"
"10,15065508","0,2902260007","-1,587790799","3,432294538","3,792882354"
"10,16061008","0,787515941","-3,029374602","5,381767346","6,225810116"
"10,17056608","0,8917136163","-3,768279058","7,48743858","8,429520551"
"10,18052208","0,7885528716","-3,495336294","7,257793279","8,094118526"
"10,19047708","1,074760922","-2,533606728","5,025055032","5,729350065"
"10,20043308","1,25509373","-1,594402684","2,646471439","3,334845014"
"10,21038808","1,589359461","-1,112824541","0,8231265807","2,107600371"
"10,22034408","2,142033606","-1,471656033","0,1681191444","2,604293282"
"10,23030008","2,468664043","-2,264399896","0,7881216395","3,441357983"
"10,24025508","2,285325912","-2,988400531","1,608669013","4,091585053"
"10,25021108","1,766693963","-3,501255138","2,030506446","4,416214615"
"10,26016608","1,218146344","-3,464753309","2,097576349","4,229447073"
"10,27012208","0,7760513784","-3,049718819","1,993538595","3,725216336"
"10,28007808","0,6321600258","-2,607343626","1,811103128","3,236967967"
"10,29003308","0,6244528109","-2,191310432","1,728919927","2,860235451"
"10,29998908","0,4219236794","-1,821192206","1,363894626","2,314080637"
"10,30994408","0,2161429113","-1,464461034","0,5439810902","1,577111063"
"10,31990008","0,03604274891","-1,11298841","-0,4627486467","1,205893275"
"10,32985608","-0,001800905876","-0,7849831465","-1,522928367","1,713333766"
"10,33981108","-0,05423153646","-0,5734811702","-2,382268508","2,450923287"
"10,34976708","-0,1317230044","-0,433256899","-2,955441238","2,98993234"
"10,35972308","-0,262707469","-0,3810874562","-3,428334219","3,459439027"
"10,36967808","-0,2631781333","-0,4554883052","-3,855199088","3,890924355"
"10,37963408","-0,1065842164","-0,5917306226","-4,199125881","4,241952792"
"10,38958908","0,0532483637","-0,7981936146","-4,332777443","4,406008262"
"10,39954442","0,1299730059","-1,077407371","-4,101824704","4,242954811"
"10,40950042","0,04323190056","-1,328432579","-3,771735932","3,999074149"
"10,41945542","0,04912519958","-1,209194403","-3,708273761","3,90075104"
"10,42941142","0,2971438781","-0,9295279254","-3,718479491","3,844399352"
"10,43936642","0,3644249747","-0,8287260206","-3,536835737","3,650862831"
"10,44932242","0,3553939866","-0,7389046021","-3,221653857","3,324355346"
"10,45927842","0,37875756","-0,7012036559","-2,889796886","2,997677418"
"10,46923342","0,3925617764","-0,6367461433","-2,918348256","3,01269098"
"10,47918942","0,5084323579","-0,4379628843","-3,231797022","3,300731273"
"10,48914542","0,5717516004","-0,244281321","-3,468222755","3,523512783"
"10,49910042","0,5743894621","-0,2569887824","-3,617506848","3,671828194"
"10,50905642","0,5901648114","-0,2545826532","-3,337946205","3,399263406"
"10,51901142","0,6433033571","-0,1805776607","-2,825387467","2,903319108"
"10,52896742","0,7433903667","-0,02168089092","-2,394533628","2,507367263"
"10,53892342","0,7911117594","0,2928208123","-2,09893875","2,262110899"
"10,54887842","1,000359634","0,7793122244","-1,952081836","2,327803779"
"10,55883442","1,277470293","1,354294229","-1,966699875","2,708126955"
"10,56878942","1,274388957","1,764885566","-2,070654014","3,004412808"
"10,57874542","1,010676973","2,415668096","-2,18588977","3,41101662"
"10,58870142","0,7738897359","3,140115019","-2,306762243","3,972452605"
"10,59865642","0,5381965128","3,486866894","-2,16679101","4,140396056"
"10,60861242","0,1197684451","3,811023374","-1,800248356","4,216531487"
"10,61856742","-0,04631323703","4,002180548","-1,14598761","4,163277754"
"10,62852342","-0,1667728961","3,536859126","0,2410912263","3,548987272"
"10,63847942","-0,3301745801","2,934785364","2,024301381","3,580471542"
"10,64843442","-0,3190612158","2,46615091","3,357167757","4,177831461"
"10,65839042","-0,291775184","2,232234509","3,91678781","4,517657625"
"10,66834542","-0,2520690814","2,071044315","4,20275934","4,692115669"
"10,67830142","-0,2015674107","2,030382778","4,191778854","4,66198387"
"10,68825742","-0,09159202851","2,121726519","3,747313281","4,307257753"
"10,69821242","-0,1075095382","2,336777463","3,252397347","4,006267055"
"10,70816842","-0,05877394594","2,464097952","2,831286723","3,7538537"
"10,71812342","-0,1994289377","2,216098972","2,961486089","3,704222781"
"10,72807942","-0,7143018575","1,87141438","3,462817588","4,000440548"
"10,73803542","-1,020723586","1,716641066","4,135158511","4,592196544"
"10,74799042","-1,05908439","1,66334428","4,714997651","5,110731532"
"10,75794642","-1,203357931","1,727967415","4,372140899","4,852788656"
"10,76790242","-1,35372281","1,626221185","3,61969663","4,192775272"
"10,77785742","-0,9688009686","0,8959383027","3,406424702","3,653082261"
"10,78781342","-0,5905457575","-0,467977227","4,036679705","4,106401103"
"10,79776842","-0,6429222648","-2,026276132","4,764230622","5,216995057"
"10,80772442","-1,046864075","-3,03808286","5,55882279","6,42077742"
"10,81768042","-1,406333571","-3,291093636","5,520932248","6,57949575"
"10,82763542","-1,390758635","-3,250088282","4,512332572","5,732227199"
"10,83759142","-1,101345141","-2,892510579","3,38760193","4,588619118"
"10,84754642","-1,031771607","-2,419048372","2,170012826","3,409589908"
"10,85750242","-0,8324781789","-1,956673362","0,8039675939","2,273313541"
"10,86745842","-0,612459733","-1,616874557","-0,4570616448","1,788377926"
"10,87741342","-0,5509462935","-1,490503071","-1,374995565","2,10136956"
"10,88736942","-0,39876432","-1,547387854","-1,705254491","2,336945663"
"10,89732442","-0,3530047412","-1,771002923","-1,70743024","2,48523273"
"10,90728042","-0,4430207989","-1,898313472","-1,687621043","2,578357277"
"10,91723642","-0,412254212","-1,864232391","-1,468133524","2,408470881"
"10,92719142","-0,4016676088","-1,817770269","-1,221782727","2,226741712"
"10,93714742","-0,2937126589","-1,681522251","-1,089136886","2,024846503"
"10,94710242","-0,1359258369","-1,585657589","-0,8970125824","1,826859982"
"10,95705842","0,046623578","-1,615915614","-0,3676302356","1,657862787"
"10,96701442","0,07542740084","-1,535705118","0,01086763501","1,537594747"
"10,97696942","-0,06573556781","-1,511807109","-0,05126253963","1,514103612"
"10,98692542","-0,1616428415","-1,405101124","-0,421883626","1,475948295"
"10,99688042","-0,007178115025","-1,077185177","-1,171785525","1,591684877"
"11,00683642","0,2034183468","-0,8063037027","-1,918117114","2,090616643"
"11,01679242","0,3897914021","-0,6401525849","-2,467320938","2,578644077"
"11,02674742","0,5603674004","-0,6204208633","-2,940698068","3,057227306"
"11,03670342","0,5476914409","-0,4976087232","-3,532195972","3,608876382"
"11,04665842","0,5613735601","-0,4118642758","-3,774463658","3,838143869"
"11,05661442","0,5643695272","-0,3384975068","-3,541708807","3,602331856"
"11,06657042","0,4570923061","-0,3140298329","-3,156676088","3,205019818"
"11,07652542","0,4725498958","-0,4594218734","-2,669117121","2,749283191"
"11,08648142","0,5478265481","-0,4100538316","-2,413610169","2,508739149"
"11,09643642","0,4712495847","-0,444708817","-2,700766929","2,777406004"
"11,10639242","0,3168686927","-0,4946912549","-3,197249917","3,250774099"
"11,11634842","0,3110782316","-0,3192421871","-3,526208423","3,554269416"
"11,12630342","0,4020856116","-0,1222363356","-3,805821106","3,828954015"
"11,13625942","0,3335252539","0,02238591895","-4,103566589","4,117159091"
"11,14621542","0,2866226906","0,1294250487","-4,045249384","4,057455605"
"11,15617042","0,2742520654","0,2550616863","-3,651073374","3,670232614"
"11,16612642","0,1771204579","0,27312739","-3,040440457","3,057817588"
"11,17608142","-0,09320977036","0,171906386","-2,322398867","2,330617164"
"11,18603742","-0,2285911584","0,1350395451","-1,822986424","1,842218526"
"11,19599242","-0,1705248717","0,3266514865","-1,555948178","1,598985509"
"11,20594842","-0,2369113808","0,5482635909","-1,350602735","1,476769351"
"11,21590442","-0,1415093065","0,7074861968","-1,042576677","1,267883169"
"11,22585942","-0,02783866681","0,9168138859","-0,6094570416","1,101254093"
"11,23581542","0,1118264279","1,202599767","-0,1519627029","1,217310155"
"11,24577142","0,316580498","1,628272096","0,104123708","1,66202737"
"11,25572642","0,5299240549","2,025150397","0,1391111076","2,097952701"
"11,26568242","0,6121390498","2,365551172","0,1896550244","2,450819372"
"11,27563742","0,7244684844","2,567570865","0,3855958056","2,69554426"
"11,28559342","0,6587644185","2,678055759","0,6496092868","2,833362919"
"11,29554942","0,8578273205","2,728931213","0,9510209745","3,014527189"
"11,30550442","1,177255961","2,785400113","1,344066718","3,309214519"
"11,31546042","1,173476832","2,810898067","1,779974306","3,527960366"
"11,32541542","1,073376959","2,559471594","2,283724798","3,594222015"
"11,33537142","0,8038914339","2,166963649","3,335160592","4,057741868"
"11,34532742","0,583317393","1,855096263","4,398066283","4,808807374"
"11,35528242","0,3930160685","1,833800995","4,601568099","4,96907604"
"11,36523842","0,2603480444","1,871243641","4,63519953","5,005437898"
"11,37519342","0,1580956646","1,823539863","5,012557193","5,33629286"
"11,38514942","-0,002886953093","1,664554216","4,851255902","5,128882227"
"11,39510533","-0,005997635275","0,8258870512","4,400102869","4,476944343"
"11,40506033","0,3097247473","-0,5823990512","4,319893688","4,369965623"
"11,41501633","0,4136592614","-1,651893678","4,807569015","5,100253576"
"11,42497133","0,5741085034","-2,51497516","5,304020428","5,898078783"
"11,43492733","0,5251109924","-3,015599731","5,618787741","6,398465361"
"11,44488333","0,4046078081","-2,814750212","4,793176094","5,573245311"
"11,45483833","0,3496007481","-2,074474292","3,025984971","3,685410332"
"11,46479433","0,1909498903","-1,404887993","1,396160147","1,98983298"
"11,47474933","-0,1034568696","-1,282255801","0,5213441795","1,388050077"
"11,48470533","-0,07980444375","-1,717364075","0,4934436053","1,788629281"
"11,49466033","0,2106749972","-2,34834384","0,9076510066","2,526446733"
"11,50461633","0,6827545211","-2,966615559","1,357966134","3,333321712"
"11,51457233","0,7345031105","-3,149001617","1,664654934","3,636864316"
"11,52452733","0,5431751611","-3,113271329","1,643312597","3,562018236"
"11,53448333","0,5946146887","-2,799324088","1,585823357","3,271791206"
"11,54443833","0,6346418765","-2,220274614","1,12366294","2,56807478"
"11,55439433","0,4530784484","-1,76555551","0,3704398227","1,860024732"
"11,56435033","0,3350477958","-1,205071677","-0,4047992313","1,31465478"
"11,57430533","0,2167482809","-0,802150864","-1,117357303","1,392448623"
"11,58426133","0,05387094598","-0,6185439071","-1,579944566","1,697563983"
"11,59421633","-0,1593708327","-0,6120801026","-1,879609691","1,983172636"
"11,60417233","-0,3230172227","-0,6192084432","-2,565820209","2,659171406"
"11,61412833","-0,5503261963","-0,6886360891","-3,194780638","3,31416685"
"11,62408333","-0,7258866535","-0,7422021393","-3,520455932","3,670338597"
"11,63403933","-0,7902107035","-0,7775741395","-4,015282404","4,165518849"
"11,64399433","-0,7299645748","-0,760536084","-4,190469663","4,321029901"
"11,65395033","-0,5983623154","-0,7756976219","-4,118859982","4,233763315"
"11,66390633","-0,4777219042","-0,9773309599","-3,954247413","4,101154304"
"11,67386133","-0,365620913","-1,083780836","-3,975123142","4,136407082"
"11,68381733","-0,1619634882","-1,144532676","-3,926664342","4,093272539"
"11,69377233","-0,1699799843","-1,363576245","-3,675635188","3,924095744"
"11,70372833","-0,1218830176","-1,366449567","-3,504729846","3,763664594"
"11,71368433","0,0560499109","-1,131741307","-3,298114387","3,487339744"
"11,72363933","0,2111379871","-0,8541305646","-3,013915148","3,139713807"
"11,73359533","0,4069485216","-0,6327134648","-2,575503783","2,683123769"
"11,74355033","0,5197560026","-0,5217558235","-2,255100923","2,372310185"
"11,75350633","0,6158617893","-0,3466565654","-2,062292495","2,180024508"
"11,76346233","0,7425051713","-0,01982059926","-1,939719653","2,077069839"
"11,77341733","0,526884124","0,1420478716","-1,973101991","2,047172671"
"11,78337333","0,3540032995","0,3274709737","-1,85997708","1,921476076"
"11,79332833","0,3397686184","0,4183636022","-1,650838548","1,736588244"
"11,80328433","0,2910044479","0,5575039458","-1,500219535","1,626700001"
"11,81324033","0,3503847501","0,8830967939","-1,521066613","1,793397073"
"11,82319533","0,4163841004","1,271329109","-1,727590855","2,184999676"
"11,83315133","0,5600230725","1,783204308","-1,89230692","2,659749786"
"11,84310633","0,6964271385","2,323550768","-1,709948636","2,967797714"
"11,85306233","0,8463906784","2,796880537","-1,27779613","3,18930727"
"11,86301833","0,8138530429","3,055147374","-1,025418608","3,323817921"
"11,87297333","0,5936219776","3,250585587","-0,7713120639","3,393171969"
"11,88292933","0,3278278732","3,351110334","-0,2251294971","3,374625146"
"11,89288433","0,04426210687","3,405262275","0,4182875884","3,43114191"
"11,90284033","-0,02162424602","3,399581413","0,9445837748","3,5284359"
"11,91279633","-0,01163478971","3,276867945","1,616368627","3,653853641"
"11,92275133","-0,003852364942","3,014231483","2,21898735","3,742928149"
"11,93270733","0,02966168247","2,696411923","2,412919028","3,61852115"
"11,94266233","-0,04480874844","2,260730915","2,658119677","3,48977253"
"11,95261833","-0,1170170378","1,833946737","3,189484815","3,681014399"
"11,96257333","-0,2372583034","1,401712663","3,585859378","3,857392561"
"11,97252933","-0,6749723156","1,01359583","4,097177337","4,274321731"
"11,98248533","-0,9728191752","1,058065074","4,434042447","4,661181317"
"11,99244033","-1,250050653","1,337385689","4,2037253","4,585033644"
"12,00239633","-1,749764958","2,045817088","3,785210255","4,644874772"
"12,01235133","-1,768223741","2,56267733","3,056967028","4,363367702"
"12,02230733","-1,456765075","2,083343641","2,507766128","3,570906911"
"12,03226333","-1,176899354","0,7172484156","3,219812568","3,502389235"
"12,04221833","-0,9445518344","-1,09773317","4,477077954","4,705467383"
"12,05217433","-0,6570926996","-2,692545452","6,14965762","6,745358453"
"12,06212933","-0,7235620929","-3,546499723","7,130336841","7,99643082"
"12,07208533","-1,054988416","-3,735947464","6,088684609","7,220968375"
"12,08204133","-1,407478894","-3,508995389","3,986535153","5,494224969"
"12,09199633","-1,468223864","-3,087385413","2,313656695","4,128030681"
"12,10195233","-1,435408266","-2,895645856","1,315451029","3,489351405"
"12,11190733","-1,455996605","-2,777278623","0,6256702012","3,197603144"
"12,12186333","-1,278585942","-2,610661044","0,3359757489","2,926296773"
"12,13181933","-1,3033891","-2,537234049","0,1950251073","2,85909331"
"12,14177433","-1,325490698","-2,411345834","-0,05557076812","2,752199563"
"12,15173033","-1,336470892","-2,159082333","-0,5555796272","2,599319082"
"12,16168533","-1,176571252","-1,904249565","-1,17878932","2,529828172"
"12,17164133","-0,6251707028","-1,806156091","-1,48938289","2,42307648"
"12,18159633","-0,2596556975","-1,781805946","-1,44007449","2,305660003"
"12,19155233","0,05542648807","-1,859168117","-1,409596463","2,333782418"
"12,20150833","0,388211923","-1,899514198","-1,400576549","2,391751942"
"12,21146333","0,5606898013","-1,877702329","-1,195954406","2,295745202"
"12,22141933","0,584280539","-1,826364068","-1,108857206","2,215074211"
"12,23137433","0,5424982363","-1,702929346","-1,430794374","2,289420283"
"12,24133033","0,7134491142","-1,57716977","-1,90694367","2,575443318"
"12,25128633","0,884831809","-1,475208947","-2,434819774","2,981193738"
"12,26124133","0,9868357551","-1,162471495","-3,028404549","3,390636945"
"12,27119733","1,143076135","-0,9173986074","-3,472598811","3,769242066"
"12,28115233","1,178579843","-0,7425475636","-3,933834783","4,173186244"
"12,29110833","1,215959558","-0,4904129934","-4,381361373","4,573334673"
"12,30106433","1,164876017","-0,2703471851","-4,637972279","4,789656626"
"12,31101933","1,048330118","0,00002338886261","-4,637819667","4,754825685"
"12,32097533","0,8128925646","-0,04721714348","-4,333954487","4,409782906"
"12,33093033","0,506099465","-0,1528289679","-3,986517611","4,021419653"
"12,34088633","0,4400375495","-0,1729828584","-3,749106622","3,778803591"
"12,35084233","0,4263884671","-0,263167389","-3,425776062","3,46222556"
"12,36079733","0,3469123811","-0,257717784","-3,075338979","3,105555746"
"12,37075333","0,1993944392","-0,193956821","-2,709902034","2,724141411"
"12,38070833","0,02192420818","0,01611989647","-2,585784357","2,585927544"
"12,39066433","0,07579928376","0,2576911792","-2,830559914","2,843276227"
"12,40061946","0,1781155443","0,3539179301","-2,837970675","2,865494827"
"12,41057546","0,2031210159","0,5726613906","-2,581560329","2,652103495"
"12,42053146","0,2264499445","0,8023157555","-2,319836032","2,46508202"
"12,43048646","0,08695153199","1,026408249","-1,845660172","2,113654639"
"12,44044246","0,05488320865","1,263276177","-1,443565863","1,919052179"
"12,45039746","0,03874884032","1,2969519","-1,127757745","1,719134444"
"12,46035346","-0,01328933246","1,537161074","-0,7408872467","1,706445044"
"12,47030946","0,09688149288","1,751621742","-0,3693475628","1,792758314"
"12,48026446","0,20402463","1,799660857","0,3658772403","1,847774717"
"12,49022046","0,08372211479","1,822349808","1,238945475","2,205210671"
"12,50017546","-0,004934172928","1,937794164","2,062053344","2,829688068"
"12,51013146","-0,3274714123","2,042398952","2,806011549","3,48601948"
"12,52008746","-0,7180692185","2,257258692","2,967444987","3,796915848"
"12,53004246","-0,6199978173","2,580146179","2,633281875","3,7384121"
"12,53999846","-0,4646125198","2,758220793","2,345557349","3,650381626"
"12,54995346","-0,5115641266","2,621652932","2,452474272","3,626209041"
"12,55990946","-0,52526101","2,352489954","2,733166351","3,644215474"
"12,56986446","-0,5425006483","2,095182499","3,270344791","3,921638906"
"12,57982046","-0,6769306212","1,646425362","3,700015154","4,105979016"
"12,58977646","-0,7498471545","1,461842359","3,594786907","3,952435546"
"12,59973146","-0,4319312986","1,335847287","3,41612991","3,693371926"
"12,60968746","-0,1408135244","1,081325444","3,667567785","3,826244454"
"12,61964246","-0,1078627831","0,7487337716","3,861268498","3,934670387"
"12,62959846","0,1816284053","0,6459762655","3,565330389","3,627927093"
"12,63955446","0,2776982316","1,024642097","2,74628458","2,944331287"
"12,64950946","0,153975351","1,225116663","1,448454135","1,903323049"
"12,65946546","0,3853142622","1,101896095","-0,1984398812","1,184069454"
"12,66942046","0,495089158","0,4076475562","-0,9155447477","1,117815723"
"12,67937646","0,60067763","-0,6561096364","0,07038468897","0,8923269999"
"12,68933246","0,9969469066","-1,746896314","1,500961547","2,509668391"
"12,69928746","1,041804041","-2,51609344","2,168490211","3,481153782"
"12,70924346","0,8878814243","-2,155961528","2,300125653","3,275222367"
"12,71919846","0,9086419635","-1,489272817","1,487767305","2,292818199"
"12,72915446","0,8361864831","-1,134222135","0,7894279075","1,615197854"
"12,73910946","0,6829710142","-1,228750123","0,5898139054","1,524518519"
"12,74906546","0,6649143738","-1,761940177","1,109549516","2,18578234"
"12,75902146","0,4886304697","-2,413076026","1,974700035","3,15612672"
"12,76897646","0,2565459289","-3,139085324","2,397215745","3,958069709"
"12,77893246","0,1104589469","-3,467640372","2,50216625","4,277565531"
"12,78888746","0,02105216905","-3,297786943","1,986413763","3,849893707"
"12,79884346","-0,05688281022","-2,810530862","1,15100569","3,037619706"
"12,80879946","0,1867076623","-2,152657559","0,7945155698","2,302183595"
"12,81875446","0,22573885","-1,531206416","-0,00994435966","1,547788748"
"12,82871046","0,2264336454","-0,9716927822","-1,104208084","1,488198425"
"12,83866546","0,4872958428","-0,5871157077","-1,803851411","1,958581631"
"12,84862146","0,5468033219","-0,3930178227","-2,216208168","2,316254633"
"12,85857646","0,2023409973","-0,5225025129","-2,69571435","2,753330095"
"12,86853246","-0,1480980588","-0,6218931922","-2,818054474","2,889656588"
"12,87848846","-0,2777068562","-0,7282325564","-3,12847789","3,224099512"
"12,88844346","-0,4718824361","-0,8922981186","-3,434748614","3,579995393"
"12,89839946","-0,4882680885","-0,8972653283","-3,493077514","3,639379249"
"12,90835446","-0,4289908435","-0,99708417","-3,419147074","3,587307723"
"12,91831046","-0,2540618856","-0,8961444171","-3,371429701","3,49773648"
"12,92826646","-0,1318316165","-0,7735228962","-3,458219338","3,546124397"
"12,93822146","-0,07218913972","-0,7578938735","-3,248264535","3,336290887"
"12,94817746","0,02614852913","-0,5950394158","-3,2947499","3,348153603"
"12,95813246","0,06370526835","-0,498474842","-3,528035678","3,563645784"
"12,96808846","0,2423400454","-0,3313704818","-3,687081113","3,709865527"
"12,97804346","0,4660719848","-0,2478329198","-3,67526389","3,712978442"
"12,98799946","0,5740339514","-0,1582196622","-3,31464739","3,36770482"
"12,99795546","0,6356869932","-0,2045873514","-2,92331605","2,998621461"
"13,00791046","0,5578599682","-0,1204865563","-2,56710952","2,629786311"
"13,01786646","0,546854412","0,1437276305","-2,370101037","2,436613696"
"13,02782146","0,5142083106","0,4177806348","-2,471989939","2,559235258"
"13,03777746","0,5105649836","0,9452972813","-2,764374111","2,965809801"
"13,04773346","0,6262766305","1,347685706","-2,784443509","3,156201013"
"13,05768846","0,8168050097","1,716509504","-2,241942349","2,939367415"
"13,06764446","0,8429547083","2,178135778","-1,63539956","2,851206732"
"13,07759946","0,8667071946","2,695519346","-1,094114621","3,035472403"
"13,08755546","0,8076567484","3,112519085","-0,5700988483","3,265746036"
"13,09751046","0,6953250115","3,428160557","-0,2091057873","3,504209883"
"13,10746646","0,5560208727","3,630140342","0,05169523358","3,672839571"
"13,11742246","0,3264285614","3,709664814","0,4542280841","3,751598565"
"13,12737746","0,1152767602","3,766396254","0,7808494574","3,848214567"
"13,13733346","0,0505589734","3,817711419","1,154394736","3,988747159"
"13,14728846","-0,04043400787","3,863869339","1,781737241","4,255080349"
"13,15724446","-0,2180717616","3,54217483","2,631860417","4,418285535"
"13,16719946","-0,4304699698","3,069454926","3,500610482","4,675588913"
"13,17715546","-0,4657913185","2,446811682","4,315856186","4,983017517"
"13,18711146","-0,5786377566","1,577219618","5,3638889","5,620831567"
"13,19706646","-0,619243161","0,8435573369","6,145315477","6,233775212"
"13,20702246","-0,676218138","0,6088405989","6,277529794","6,34313315"
"13,21697746","-0,7399076919","0,8636290741","5,403317844","5,521699222"
"13,22693346","-0,5383618429","1,54910679","3,981939826","4,306438215"
"13,23688946","-0,4503211939","2,117232641","2,611637236","3,39206608"
"13,24684446","-0,3215639703","2,114520118","1,8458543","2,825203853"
"13,25680046","0,07134597123","1,046535096","2,308314679","2,535476801"
"13,26675546","0,03964083306","-0,6929482645","3,504054492","3,572134737"
"13,27671146","-0,2997283474","-2,375990791","4,512117979","5,108265653"
"13,28666646","-0,4011083226","-3,499887766","5,181194401","6,265371312"
"13,29662246","-0,8102536431","-3,899188861","4,908393139","6,320799629"
"13,30657846","-1,102007265","-3,623721853","3,369708281","5,069587161"
"13,31653346","-0,9777868965","-2,896991593","1,733063849","3,514560827"
"13,32648946","-1,051963359","-2,346656041","0,4373623753","2,608583395"
"13,33644446","-1,222050384","-2,088140697","-0,1706182444","2,425458574"
"13,34640046","-1,218884628","-2,008046414","-0,695914557","2,449944327"
"13,35635646","-1,272257939","-2,018341753","-0,8541904986","2,53416359"
"13,36631146","-1,464335757","-2,191972775","-0,5604755008","2,695024424"
"13,37626746","-1,333365874","-2,286242463","-0,3661263317","2,671856591"
"13,38622246","-0,9036889333","-2,131518559","-0,3871377164","2,34731776"
"13,39617858","-1,175029999","-2,518109853","-0,8309624344","2,900357098"
"13,40613358","-1,10755927","-2,38608864","-1,195632225","2,889574874"
"13,41608958","-0,7753997062","-2,321878319","-1,151262968","2,705137714"
"13,42604558","-0,479133349","-2,189298112","-0,8363196534","2,392075574"
"13,43600058","-0,2521529889","-1,998145908","-0,7654057914","2,154533413"
"13,44595658","0,004379199073","-1,695406757","-1,037346343","1,987589163"
"13,45591158","0,1407246467","-1,380704786","-1,380390206","1,957454023"
"13,46586758","0,3301233438","-1,022260234","-1,890592516","2,174474067"
"13,47582258","0,475250944","-0,8321459839","-2,395936375","2,580473117"
"13,48577858","0,4746518236","-0,8408456176","-2,608670944","2,781632578"
"13,49573458","0,5727812585","-0,9553243791","-2,467681711","2,707429789"
"13,50568958","0,6163719589","-1,013838782","-2,38514066","2,663959353"
"13,51564558","0,6849362634","-1,05464438","-2,366128439","2,679547768"
"13,52560058","1,011767552","-0,7899496984","-2,343424285","2,671952747"
"13,53555658","1,092621827","-0,3742658021","-2,519526633","2,771626202"
"13,54551258","1,026440701","0,05736498624","-2,870667136","3,049196789"
"13,55546758","1,021293982","0,4326878187","-3,293118526","3,47489421"
"13,56542358","0,8076763366","0,6382243925","-3,490385456","3,639019383"
"13,57537858","0,5104203747","0,6885988131","-3,491674767","3,595342816"
"13,58533458","0,3293787009","0,6752526165","-3,308817716","3,393041571"
"13,59528958","0,1760603577","0,6108767456","-3,141937596","3,205610629"
"13,60524558","-0,05120640635","0,532868603","-2,784377435","2,835371007"
"13,61520158","-0,214000528","0,4720854076","-2,363549232","2,419716064"
"13,62515658","-0,3532331115","0,3514716744","-1,792673289","1,860640612"
"13,63511258","-0,259417058","0,4414667552","-1,348166785","1,442131681"
"13,64506758","-0,1387361914","0,743838775","-1,200162063","1,41877864"
"13,65502358","-0,08229521144","1,064157581","-1,360949968","1,729563145"
"13,66497858","0,01819463477","1,451082458","-1,546513696","2,120772491"
"13,67493458","0,1377236729","1,774206027","-1,332476951","2,223121603"
"13,68489058","0,05783576019","1,907165572","-0,6469371092","2,014734006"
"13,69484558","-0,09095285475","1,936517133","0,2466308784","1,954276801"
"13,70480158","-0,1560397105","1,916048223","0,9729339999","2,154574147"
"13,71475658","-0,1420908487","1,837201151","1,377056708","2,300387589"
"13,72471258","-0,04088153914","1,851013298","1,520661401","2,395899127"
"13,73466758","0,1042553069","1,793863489","1,705800036","2,4776136"
"13,74462358","0,1143023948","1,764492633","2,193634408","2,81753992"
"13,75457958","-0,01297621407","1,799772539","2,598647062","3,1610625"
"13,76453458","-0,1272659278","1,849530298","2,541681733","3,145966461"
"13,77449058","-0,2181691177","1,865492466","2,475602934","3,107453908"
"13,78444558","-0,276175507","1,769531909","2,219581427","2,852026963"
"13,79440158","-0,408154656","1,587778227","1,9274405","2,53034717"
"13,80435658","-0,4373500961","1,435969745","1,913918229","2,432358362"
"13,81431258","-0,4993713298","1,109788521","1,890648065","2,248455557"
"13,82426858","-0,2542708504","0,8377370185","2,110476476","2,284856217"
"13,83422358","-0,04167774718","0,6026720788","2,489405871","2,561658108"
"13,84417958","0,4031497318","0,5868734868","2,235656008","2,346296652"
"13,85413458","1,000170038","0,4573010883","1,528466849","1,882996362"
"13,86409058","0,7525636978","-0,7788228124","1,630377386","1,957306188"
"13,87404658","0,7626347228","-1,720257862","2,7277185","3,313811559"
"13,88400158","0,7861462308","-2,804250367","4,516291721","5,373894019"
"13,89395758","0,4718808647","-3,352222182","5,961905864","6,855974521"
"13,90391258","0,456220669","-2,757600988","5,524268669","6,191126298"
"13,91386858","0,416359067","-1,854085717","3,385350752","3,882214372"
"13,92382358","0,2008744425","-1,234498667","1,496968483","1,95070555"
"13,93377958","0,21085955","-0,9150299004","0,4586895096","1,045053843"
"13,94373558","0,348142818","-0,8305057669","0,05169991136","0,9020067247"
"13,95369058","0,2762856904","-1,072268838","0,1068297994","1,112432852"
"13,96364658","0,2711414563","-1,385769498","0,07426139295","1,413997718"
"13,97360158","0,2978907137","-1,520213504","-0,09506870985","1,552039315"
"13,98355758","0,2226891251","-1,572779388","-0,3409628391","1,624647995"
"13,99351258","0,181101023","-1,456249935","-0,5503568941","1,567276034"
"14,00346858","0,130581701","-1,415291651","-0,7904950243","1,626340808"
"14,01342458","-0,006472356096","-1,334494241","-0,8854853815","1,601562091"
"14,02337958","0,05246450789","-1,18203584","-1,023864418","1,564691534"
"14,03333558","0,1103559628","-1,101436723","-0,9980132926","1,490426726"
"14,04329058","0,1122170585","-0,9794211933","-1,048482365","1,439157327"
"14,05324658","0,1890398242","-0,8337930715","-1,428183008","1,664528055"
"14,06320158","0,3257529156","-0,6809592797","-1,789889429","1,942556221"
"14,07315758","0,3476913764","-0,4128201494","-2,292887385","2,355555631"
"14,08311358","0,1619821993","-0,2585963282","-3,014988112","3,03039001"
"14,09306858","0,05432574973","-0,05801227301","-3,646896708","3,647762644"
"14,10302458","0,08191240154","0,1105258975","-4,041363325","4,043704136"
"14,11297958","-0,00465087533","0,1260086668","-4,384891337","4,386703985"
"14,12293558","-0,04523135595","0,08200551845","-4,64632795","4,647271695"
"14,13289058","0,07954786062","0,01773021966","-4,64178291","4,642498336"
"14,14284658","0,3082231823","-0,1355513227","-4,34167749","4,354714585"
"14,15280258","0,2564245992","-0,224644032","-3,903557315","3,91841527"
"14,16275758","0,2689636608","-0,2786300585","-3,597345064","3,618130411"
"14,17271358","0,410327993","-0,2178308563","-3,362408032","3,394349292"
"14,18266858","0,4701519527","-0,0925426396","-3,09730463","3,134151076"
"14,19262458","0,437153118","0,02777858667","-2,893747265","2,926712786"
"14,20257958","0,4145898823","0,2272926014","-2,668499655","2,710062195"
"14,21253558","0,3366194542","0,5745648055","-2,582613412","2,667082565"
"14,22249158","0,2490605427","0,7924123994","-2,515537663","2,649127837"
"14,23244658","0,219989429","1,028126892","-2,363491344","2,586799488"
"14,24240258","0,2388920885","1,287061628","-2,127279035","2,497781647"
"14,25235758","0,4358450959","1,623103304","-1,697122183","2,388440702"
"14,26231358","0,3797733676","2,027354359","-1,124383902","2,349177019"
"14,27226858","0,3093109837","2,429322807","-0,5841204715","2,517633672"
"14,28222458","0,3620280913","2,661380085","-0,1012258279","2,687797418"
"14,29218058","0,1918331853","2,697340169","0,2154032385","2,712718657"
"14,30213558","0,1229070112","2,834050702","0,3673694497","2,860403787"
"14,31209158","0,3057498101","2,989080854","0,4460987002","3,037612771"
"14,32204658","0,1565830265","2,957698848","0,9633556759","3,114571379"
"14,33200258","0,0709182474","3,073055057","1,961717463","3,646509589"
"14,34195758","0,0800698708","3,004109368","2,720635768","4,053756685"
"14,35191358","0,05098998629","2,895031899","2,999174318","4,168795541"
"14,36186958","0,2213448867","2,80025555","2,983840579","4,098015289"
"14,37182458","0,1903845377","2,391093126","3,004729173","3,844732762"
"14,38178058","-0,1246775481","1,885353265","3,26012912","3,768095448"
"14,39173558","-0,2553140668","1,490002549","3,251560026","3,585796351"
"14,40169217","-0,3959295899","1,224253322","3,236747274","3,483114893"
"14,41164717","-0,4779088689","1,251663169","3,58317843","3,82547059"
"14,42160317","-0,4266078839","1,516573613","3,985782616","4,285843309"
"14,43155917","-0,2678075201","1,532806653","4,197475796","4,476608109"
"14,44151417","-0,3016678689","0,7877432515","4,40229382","4,482380374"
"14,45147017","-0,3066180485","-0,6646332689","5,279076791","5,329578198"
"14,46142517","-0,4472884624","-2,565163859","6,980555735","7,450388645"
"14,47138117","-1,016993501","-4,115218044","7,774455008","8,855023772"
"14,48133617","-1,645737437","-4,624193023","7,164541299","8,684599291"
"14,49129217","-1,785708378","-4,100744723","5,463699701","7,060940173"
"14,50124717","-1,484356039","-2,857444242","3,749718826","4,942538995"
"14,51120317","-1,150185399","-1,632091205","2,180327899","2,956429925"
"14,52115917","-1,136217789","-0,7607033144","0,7736632293","1,571055438"
"14,53111417","-1,396042325","-0,2928653973","-0,1554540753","1,4348764"
"14,54107017","-1,539281859","-0,2032987712","-0,8421224302","1,766320815"
"14,55102517","-1,53890296","-0,5618870187","-0,954984802","1,896295155"
"14,56098117","-1,509876504","-1,15351897","-0,3253478497","1,927740723"
"14,57093717","-1,42095965","-1,689295393","0,2638211077","2,223161449"
"14,58089217","-1,292698928","-2,114860572","0,4984277719","2,528267391"
"14,59084817","-1,105051253","-2,355029546","0,7041965532","2,695031581"
"14,60080317","-0,8988988942","-2,492961855","0,9259141999","2,807168527"
"14,61075917","-0,4982003518","-2,407156889","1,020152605","2,661450585"
"14,62071417","-0,2795143402","-2,28250463","0,8826985985","2,463150923"
"14,63067017","-0,3064159542","-1,989354327","0,3239521194","2,03871684"
"14,64062517","-0,1767146976","-1,497286279","-0,6504623955","1,642009627"
"14,65058117","0,04110976327","-1,072202107","-1,723024179","2,029807797"
"14,66053717","0,1813431343","-0,6632506947","-2,764547188","2,848773064"
"14,67049217","0,3689296331","-0,3375343242","-3,715062963","3,7485639"
"14,68044817","0,5399774651","0,06566978663","-4,592134786","4,624239405"
"14,69040317","0,5848895996","0,2833762434","-4,958406129","5,000818861"
"14,70035917","0,5853328916","0,2869908459","-4,938842515","4,981680813"
"14,71031417","0,5195949484","0,005948518664","-4,64316753","4,672153573"
"14,72027017","0,2384064407","-0,2829238151","-4,443965172","4,459339634"
"14,73022617","0,002993884049","-0,4611096722","-4,540292203","4,563648144"
"14,74018117","-0,1945958851","-0,4783930184","-4,624339496","4,653089642"
"14,75013717","-0,22434703","-0,4919930573","-4,617798216","4,649349322"
"14,76009217","-0,1584361553","-0,4530393451","-4,310518847","4,33715568"
"14,77004817","-0,1271564386","-0,4367804311","-3,947664033","3,973788774"
"14,78000317","-0,2923228488","-0,2875983717","-3,869289708","3,890959819"
"14,78995917","-0,4094755786","-0,03655752316","-4,072603244","4,093299877"
"14,79991517","-0,559087518","0,06441395089","-4,160223185","4,198116835"
"14,80987017","-0,7130616631","0,06082566082","-3,975673365","4,03957119"
"14,81982617","-0,7401940593","0,1301859176","-3,73706779","3,811890776"
"14,82978117","-0,6990865253","0,2160571034","-3,432018549","3,509152884"
"14,83973717","-0,4626365629","0,5024192275","-2,892871352","2,972400096"
"14,84969217","-0,3249264117","1,155787543","-2,258083003","2,557412925"
"14,85964817","-0,6281856734","1,704991951","-1,547076198","2,386432391"
"14,86960317","-1,291975774","2,093481982","-0,8069818336","2,58903223"
"14,87955917","-1,777127589","2,653925177","-0,4155329651","3,220895676"
"14,88951517","-1,818547364","3,287243244","-0,254880715","3,765374728"
"14,89947017","-1,718516268","3,692659941","0,1949853462","4,077628587"
"14,90942617","-1,320441335","3,968290671","1,118000497","4,329067021"
"14,91938117","-0,8312749681","3,953936633","2,207074817","4,603890987"
"14,92933717","-0,6997218253","3,446892989","3,158514453","4,727250306"
"14,93929217","-0,3460591992","2,821819496","3,970714341","4,883543244"
"14,94924817","0,4100656722","2,387652624","4,541881476","5,14759422"
"14,95920417","1,101196403","1,89608349","4,473373743","4,981850938"
"14,96915917","1,725540236","1,358990858","4,203252261","4,742538859"
"14,97911517","2,066807423","1,019286048","4,27494965","4,85652463"
"14,98907017","2,044590342","0,7053247735","4,503362358","4,995808767"
"14,99902617","2,010767708","0,618320982","4,513254678","4,979455331"
"15,00898117","2,178553854","0,9225435725","4,259906518","4,87278022"
"15,01893717","2,12813419","1,208918853","3,377697916","4,171244795"
"15,02889217","1,876456872","1,133895275","2,74880356","3,516067391"
"15,03884817","1,559870783","0,6165760267","2,583559492","3,080282861"
"15,04880417","1,25324601","-0,3845566092","2,393123279","2,728653217"
"15,05875917","1,092426749","-1,595746667","2,413079826","3,092370915"
"15,06871517","1,270392677","-2,633499976","3,143205273","4,292896349"
"15,07867017","1,635119478","-3,385201063","4,328350516","5,733046322"
"15,08862617","1,663682396","-3,694512632","4,936055732","6,386071475"
"15,09858117","1,566515412","-3,053074244","3,975220206","5,251438713"
"15,10853717","1,554243276","-2,004904851","1,916391016","3,17928768"
"15,11849317","1,429201447","-1,351115682","0,3149661183","1,991816763"
"15,12844817","1,313876081","-0,8932751884","-0,7326602143","1,749571922"
"15,13840417","1,451946092","-1,117050324","-1,177314067","2,177617344"
"15,14835917","1,689181665","-1,682031105","-0,9284980845","2,558255661"
"15,15831517","1,516240906","-2,285806553","-0,357796973","2,766209818"
"15,16827017","1,14899147","-2,795909899","0,6649535501","3,095069755"
"15,17822617","0,7012622742","-3,108855804","1,781146672","3,650922713"
"15,18818117","0,3985728968","-2,932990268","2,138932536","3,651893298"
"15,19813717","0,3474878933","-2,463733671","1,719112392","3,024248477"
"15,20809317","0,2898907726","-1,977126191","1,260569063","2,362646609"
"15,21804817","0,2332141498","-1,558748264","1,169672926","1,962707248"
"15,22800417","0,2714787675","-1,363891556","1,048231519","1,741462092"
"15,23795917","0,08018491477","-1,184894325","0,3919154763","1,250600624"
"15,24791517","-0,2760958752","-0,8973851962","-0,6309631008","1,131213312"
"15,25787017","-0,4019563881","-0,6655517934","-1,734996353","1,901247084"
"15,26782617","-0,5348873908","-0,4922827868","-2,712270157","2,807998623"
"15,27778217","-0,5875143782","-0,4581486422","-3,513261518","3,591389678"
"15,28773717","-0,704197138","-0,4343805876","-4,216917788","4,297321926"
"15,29769317","-0,6546323374","-0,3668430541","-4,725908555","4,785115359"
"15,30764817","-0,5574181745","-0,3913056117","-5,036616731","5,082454447"
"15,31760417","-0,4607081877","-0,5454554656","-5,008470574","5,05910577"
"15,32755917","-0,3902410896","-0,5038208051","-4,902842377","4,944086052"
"15,33751517","-0,3582135871","-0,4726987074","-4,746873162","4,783781544"
"15,34747017","-0,3035314861","-0,5161537524","-4,339733875","4,380848795"
"15,35742617","-0,2112155358","-0,5841716346","-3,857570719","3,907265073"
"15,36738217","-0,1332166026","-0,6230515257","-3,438662741","3,497190488"
"15,37733717","-0,120803585","-0,6565744901","-3,068577844","3,140358825"
"15,38729317","-0,1615587512","-0,6730475584","-2,769789217","2,854965246"
"15,39724767","0,0185134542","-0,4874322291","-2,525003135","2,571686948"
"15,40720367","0,1863387395","-0,1953231691","-2,199951739","2,216452328"
"15,41715867","0,3992312202","0,1988002159","-2,035864835","2,084143162"
"15,42711467","0,5338047422","0,772884234","-2,15464225","2,35048522"
"15,43706967","0,502533102","1,304044719","-2,406401137","2,782775337"
"15,44702567","0,5218771532","1,737121085","-2,378126341","2,990891225"
"15,45698167","0,3391445012","1,949246375","-2,192792408","2,953458815"
"15,46693667","0,3772031508","2,37971079","-1,67046005","2,931849661"
"15,47689267","0,4668407475","2,763760153","-1,172512919","3,038272044"
"15,48684767","0,3495835353","3,010457105","-0,8195919389","3,139552767"
"15,49680367","0,3950408131","3,39324654","-0,6156305319","3,471192918"
"15,50675867","0,7510528504","3,630318682","0,03379398286","3,707348938"
"15,51671467","0,663652033","3,400132805","1,095626711","3,633419189"
"15,52667067","0,378916385","3,076083622","2,105959502","3,747123364"
"15,53662567","0,5520974641","3,140208575","2,489838565","4,045369894"
"15,54658167","0,6595274802","3,002523018","2,36144248","3,876407042"
"15,55653667","0,3466961072","2,884608067","2,616116204","3,909632449"
"15,56649267","0,4341913571","2,889056629","2,838696899","4,073496094"
"15,57644767","0,5509658816","2,675490001","3,123054598","4,14913005"
"15,58640367","0,4736737306","2,375173058","3,326144185","4,114492557"
"15,59635867","0,1718208705","2,030664906","3,092612239","3,703697184"
"15,60631467","-0,382979469","1,762387489","3,061174684","3,552952769"
"15,61627067","-0,844269674","1,674949688","3,685707017","4,135539137"
"15,62622567","-0,7886135365","1,964269334","4,687495272","5,143236068"
"15,63618167","-0,8668567371","2,005957642","5,509232554","5,926799305"
"15,64613667","-0,9613816559","1,453866903","5,807483822","6,063402675"
"15,65609267","-0,6224191493","-0,2641362727","6,194427996","6,231220728"
"15,66604767","-0,3288699201","-2,434046918","7,358879943","7,75795423"
"15,67600367","-0,5267582627","-4,237004144","8,697120495","9,688631652"
"15,68595867","-0,9336197338","-5,340003024","8,251853853","9,873214781"
"15,69591467","-1,13373455","-5,142574711","5,796070642","7,831083167"
"15,70587067","-1,217614978","-4,338603609","3,327576168","5,601681057"
"15,71582567","-1,37873749","-3,426518074","1,289020445","3,911970972"
"15,72578167","-1,403308075","-2,615251985","-0,11919783","2,970357659"
"15,73573667","-1,281704993","-2,037846456","-0,7960592347","2,535605682"
"15,74569267","-1,288176692","-1,586554844","-1,253712033","2,397571547"
"15,75564767","-1,372838088","-1,345641227","-2,090852636","2,840263979"
"15,76560367","-1,223303003","-0,9727911817","-2,978569314","3,363728301"
"15,77555867","-0,9517336039","-0,8805598332","-2,936730732","3,210228943"
"15,78551467","-0,6633645692","-1,245257544","-2,107606663","2,536281677"
"15,79547067","-0,6519146977","-1,808944336","-1,219653171","2,277021353"
"15,80542567","-0,4360117415","-2,269616636","-0,4486913556","2,354270555"
"15,81538167","-0,3646464745","-2,53785473","-0,01082202673","2,563940483"
"15,82533667","-0,651065682","-2,619540918","0,07769195437","2,70035501"
"15,83529267","-0,5808870343","-2,341673044","-0,2059108686","2,421417287"
"15,84524767","-0,4308376135","-1,86841315","-1,089818087","2,205514047"
"15,85520367","-0,3776481239","-1,37826255","-1,923015327","2,39587431"
"15,86515867","-0,2510052536","-0,9322033189","-2,903315064","3,059615176"
"15,87511467","-0,09734086476","-0,6307770132","-3,684741057","3,739608475"
"15,88507067","0,05961389847","-0,4159191737","-4,150750696","4,171962837"
"15,89502567","0,1755890355","-0,445327891","-4,356323596","4,382545346"
"15,90498167","0,2534050971","-0,6102793063","-3,996872445","4,051128771"
"15,91493667","0,44962194","-0,7868171257","-3,536046363","3,650323953"
"15,92489267","0,4525022784","-0,964556694","-3,130005183","3,306366643"
"15,93484767","0,4762519873","-1,019269676","-2,629009314","2,859618261"
"15,94480367","0,5524493203","-0,8735545765","-2,666901026","2,860185122"
"15,95475867","0,5510804871","-0,6996010803","-3,033016248","3,161062944"
